Folder: Rawdata_Ru_MoS2/Figure1/UV-vis (part 2)

File: Sample339.Sample.csv
Created as New Dataset,
nm,A
800.0,0.0011
799.2,0.0026
798.4,0.0030
797.6,0.0026
796.8,0.0021
796.0,0.0028
795.2,0.0035
794.4,0.0029
793.6,0.0031
792.8,0.0027
792.0,0.0033
791.2,0.0028
790.4,0.0020
789.6,0.0017
788.8,0.0029
788.0,0.0024
787.2,0.0027
786.4,0.0022
785.6,0.0021
784.8,0.0026
784.0,0.0029
783.2,0.0028
782.4,0.0038
781.6,0.0019
780.8,0.0022
780.0,0.0023
779.2,0.0034
778.4,0.0023
777.6,0.0026
776.8,0.0030
776.0,0.0026
775.2,0.0033
774.4,0.0022
773.6,0.0028
772.8,0.0030
772.0,0.0031
771.2,0.0032
770.4,0.0026
769.6,0.0026
768.8,0.0031
768.0,0.0031
767.2,0.0031
766.4,0.0030
765.6,0.0030
764.8,0.0030
764.0,0.0029
763.2,0.0035
762.4,0.0040
761.6,0.0035
760.8,0.0033
760.0,0.0036
759.2,0.0039
758.4,0.0040
757.6,0.0034
756.8,0.0036
756.0,0.0035
755.2,0.0038
754.4,0.0034
753.6,0.0039
752.8,0.0043
752.0,0.0033
751.2,0.0035
750.4,0.0042
749.6,0.0036
748.8,0.0039
748.0,0.0035
747.2,0.0045
746.4,0.0036
745.6,0.0039
744.8,0.0037
744.0,0.0039
743.2,0.0045
742.4,0.0042
741.6,0.0037
740.8,0.0042
740.0,0.0036
739.2,0.0042
738.4,0.0038
737.6,0.0044
736.8,0.0046
736.0,0.0047
735.2,0.0048
734.4,0.0047
733.6,0.0041
732.8,0.0032
732.0,0.0042
731.2,0.0045
730.4,0.0048
729.6,0.0044
728.8,0.0048
728.0,0.0046
727.2,0.0043
726.4,0.0049
725.6,0.0041
724.8,0.0043
724.0,0.0043
723.2,0.0046
722.4,0.0048
721.6,0.0047
720.8,0.0048
720.0,0.0048
719.2,0.0047
718.4,0.0047
717.6,0.0047
716.8,0.0049
716.0,0.0050
715.2,0.0046
714.4,0.0046
713.6,0.0047
712.8,0.0051
712.0,0.0050
711.2,0.0055
710.4,0.0050
709.6,0.0050
708.8,0.0042
708.0,0.0054
707.2,0.0051
706.4,0.0052
705.6,0.0056
704.8,0.0061
704.0,0.0056
703.2,0.0052
702.4,0.0052
701.6,0.0057
700.8,0.0058
700.0,0.0055
699.2,0.0052
698.4,0.0057
697.6,0.0052
696.8,0.0059
696.0,0.0060
695.2,0.0054
694.4,0.0057
693.6,0.0060
692.8,0.0059
692.0,0.0057
691.2,0.0057
690.4,0.0059
689.6,0.0055
688.8,0.0062
688.0,0.0059
687.2,0.0059
686.4,0.0065
685.6,0.0061
684.8,0.0065
684.0,0.0062
683.2,0.0064
682.4,0.0066
681.6,0.0070
680.8,0.0064
680.0,0.0067
679.2,0.0066
678.4,0.0069
677.6,0.0072
676.8,0.0071
676.0,0.0072
675.2,0.0070
674.4,0.0073
673.6,0.0071
672.8,0.0073
672.0,0.0076
671.2,0.0078
670.4,0.0075
669.6,0.0074
668.8,0.0081
668.0,0.0078
667.2,0.0077
666.4,0.0079
665.6,0.0076
664.8,0.0073
664.0,0.0080
663.2,0.0078
662.4,0.0078
661.6,0.0079
660.8,0.0076
660.0,0.0078
659.2,0.0080
658.4,0.0082
657.6,0.0073
656.8,0.0071
656.0,0.0073
655.2,0.0070
654.4,0.0072
653.6,0.0069
652.8,0.0065
652.0,0.0071
651.2,0.0071
650.4,0.0071
649.6,0.0064
648.8,0.0065
648.0,0.0066
647.2,0.0065
646.4,0.0065
645.6,0.0063
644.8,0.0071
644.0,0.0068
643.2,0.0065
642.4,0.0066
641.6,0.0061
640.8,0.0072
640.0,0.0065
639.2,0.0063
638.4,0.0066
637.6,0.0064
636.8,0.0069
636.0,0.0062
635.2,0.0068
634.4,0.0065
633.6,0.0066
632.8,0.0068
632.0,0.0064
631.2,0.0063
630.4,0.0065
629.6,0.0065
628.8,0.0068
628.0,0.0068
627.2,0.0068
626.4,0.0064
625.6,0.0064
624.8,0.0068
624.0,0.0069
623.2,0.0062
622.4,0.0065
621.6,0.0061
620.8,0.0069
620.0,0.0070
619.2,0.0065
618.4,0.0064
617.6,0.0069
616.8,0.0063
616.0,0.0066
615.2,0.0063
614.4,0.0070
613.6,0.0060
612.8,0.0061
612.0,0.0062
611.2,0.0058
610.4,0.0057
609.6,0.0057
608.8,0.0056
608.0,0.0057
607.2,0.0054
606.4,0.0057
605.6,0.0052
604.8,0.0053
604.0,0.0050
603.2,0.0049
602.4,0.0047
601.6,0.0047
600.8,0.0047
600.0,0.0045
599.2,0.0046
598.4,0.0042
597.6,0.0042
596.8,0.0041
596.0,0.0037
595.2,0.0039
594.4,0.0036
593.6,0.0031
592.8,0.0032
592.0,0.0035
591.2,0.0031
590.4,0.0032
589.6,0.0029
588.8,0.0028
588.0,0.0032
587.2,0.0028
586.4,0.0023
585.6,0.0023
584.8,0.0027
584.0,0.0021
583.2,0.0025
582.4,0.0018
581.6,0.0017
580.8,0.0018
580.0,0.0013

File: Sample340.Sample.csv
Created as New Dataset,
nm,A
800.0,0.0040
799.2,0.0027
798.4,0.0034
797.6,0.0029
796.8,0.0023
796.0,0.0032
795.2,0.0035
794.4,0.0031
793.6,0.0037
792.8,0.0022
792.0,0.0036
791.2,0.0035
790.4,0.0036
789.6,0.0026
788.8,0.0031
788.0,0.0034
787.2,0.0035
786.4,0.0034
785.6,0.0027
784.8,0.0032
784.0,0.0032
783.2,0.0039
782.4,0.0032
781.6,0.0027
780.8,0.0035
780.0,0.0036
779.2,0.0039
778.4,0.0038
777.6,0.0032
776.8,0.0042
776.0,0.0030
775.2,0.0029
774.4,0.0028
773.6,0.0038
772.8,0.0035
772.0,0.0038
771.2,0.0034
770.4,0.0026
769.6,0.0035
768.8,0.0045
768.0,0.0038
767.2,0.0041
766.4,0.0040
765.6,0.0038
764.8,0.0038
764.0,0.0039
763.2,0.0040
762.4,0.0044
761.6,0.0039
760.8,0.0044
760.0,0.0043
759.2,0.0045
758.4,0.0037
757.6,0.0034
756.8,0.0043
756.0,0.0036
755.2,0.0041
754.4,0.0042
753.6,0.0043
752.8,0.0050
752.0,0.0033
751.2,0.0038
750.4,0.0049
749.6,0.0046
748.8,0.0036
748.0,0.0040
747.2,0.0049
746.4,0.0041
745.6,0.0045
744.8,0.0041
744.0,0.0041
743.2,0.0050
742.4,0.0045
741.6,0.0043
740.8,0.0043
740.0,0.0042
739.2,0.0042
738.4,0.0043
737.6,0.0048
736.8,0.0049
736.0,0.0047
735.2,0.0052
734.4,0.0055
733.6,0.0046
732.8,0.0040
732.0,0.0044
731.2,0.0052
730.4,0.0059
729.6,0.0050
728.8,0.0055
728.0,0.0050
727.2,0.0045
726.4,0.0050
725.6,0.0044
724.8,0.0048
724.0,0.0048
723.2,0.0050
722.4,0.0053
721.6,0.0046
720.8,0.0054
720.0,0.0047
719.2,0.0050
718.4,0.0058
717.6,0.0053
716.8,0.0056
716.0,0.0056
715.2,0.0049
714.4,0.0055
713.6,0.0056
712.8,0.0059
712.0,0.0061
711.2,0.0059
710.4,0.0054
709.6,0.0059
708.8,0.0055
708.0,0.0058
707.2,0.0057
706.4,0.0055
705.6,0.0060
704.8,0.0067
704.0,0.0062
703.2,0.0054
702.4,0.0062
701.6,0.0064
700.8,0.0063
700.0,0.0062
699.2,0.0057
698.4,0.0058
697.6,0.0064
696.8,0.0065
696.0,0.0066
695.2,0.0061
694.4,0.0064
693.6,0.0063
692.8,0.0062
692.0,0.0065
691.2,0.0065
690.4,0.0067
689.6,0.0064
688.8,0.0072
688.0,0.0063
687.2,0.0066
686.4,0.0070
685.6,0.0067
684.8,0.0071
684.0,0.0066
683.2,0.0068
682.4,0.0070
681.6,0.0074
680.8,0.0069
680.0,0.0071
679.2,0.0074
678.4,0.0080
677.6,0.0079
676.8,0.0076
676.0,0.0084
675.2,0.0078
674.4,0.0078
673.6,0.0078
672.8,0.0079
672.0,0.0079
671.2,0.0086
670.4,0.0081
669.6,0.0080
668.8,0.0084
668.0,0.0082
667.2,0.0089
666.4,0.0086
665.6,0.0088
664.8,0.0081
664.0,0.0085
663.2,0.0085
662.4,0.0079
661.6,0.0085
660.8,0.0075
660.0,0.0081
659.2,0.0085
658.4,0.0082
657.6,0.0081
656.8,0.0081
656.0,0.0075
655.2,0.0078
654.4,0.0078
653.6,0.0074
652.8,0.0069
652.0,0.0075
651.2,0.0074
650.4,0.0076
649.6,0.0072
648.8,0.0069
648.0,0.0073
647.2,0.0072
646.4,0.0074
645.6,0.0069
644.8,0.0076
644.0,0.0067
643.2,0.0070
642.4,0.0070
641.6,0.0070
640.8,0.0073
640.0,0.0068
639.2,0.0070
638.4,0.0072
637.6,0.0064
636.8,0.0070
636.0,0.0070
635.2,0.0075
634.4,0.0068
633.6,0.0069
632.8,0.0072
632.0,0.0071
631.2,0.0069
630.4,0.0068
629.6,0.0067
628.8,0.0073
628.0,0.0072
627.2,0.0074
626.4,0.0070
625.6,0.0068
624.8,0.0076
624.0,0.0070
623.2,0.0072
622.4,0.0071
621.6,0.0071
620.8,0.0076
620.0,0.0073
619.2,0.0070
618.4,0.0069
617.6,0.0070
616.8,0.0067
616.0,0.0069
615.2,0.0068
614.4,0.0075
613.6,0.0066
612.8,0.0069
612.0,0.0066
611.2,0.0066
610.4,0.0062
609.6,0.0061
608.8,0.0064
608.0,0.0065
607.2,0.0057
606.4,0.0059
605.6,0.0056
604.8,0.0061
604.0,0.0055
603.2,0.0054
602.4,0.0055
601.6,0.0055
600.8,0.0050
600.0,0.0053
599.2,0.0052
598.4,0.0049
597.6,0.0047
596.8,0.0042
596.0,0.0042
595.2,0.0047
594.4,0.0041
593.6,0.0040
592.8,0.0036
592.0,0.0039
591.2,0.0036
590.4,0.0036
589.6,0.0039
588.8,0.0034
588.0,0.0033
587.2,0.0033
586.4,0.0028
585.6,0.0030
584.8,0.0031
584.0,0.0029
583.2,0.0023
582.4,0.0021
581.6,0.0021
580.8,0.0025
580.0,0.0022

File: Sample341.Sample.csv
Created as New Dataset,
nm,A
800.0,0.0034
799.2,0.0031
798.4,0.0046
797.6,0.0026
796.8,0.0033
796.0,0.0043
795.2,0.0044
794.4,0.0040
793.6,0.0038
792.8,0.0033
792.0,0.0043
791.2,0.0044
790.4,0.0042
789.6,0.0032
788.8,0.0039
788.0,0.0036
787.2,0.0032
786.4,0.0040
785.6,0.0027
784.8,0.0043
784.0,0.0043
783.2,0.0041
782.4,0.0043
781.6,0.0032
780.8,0.0033
780.0,0.0040
779.2,0.0046
778.4,0.0042
777.6,0.0036
776.8,0.0037
776.0,0.0033
775.2,0.0045
774.4,0.0034
773.6,0.0042
772.8,0.0040
772.0,0.0042
771.2,0.0038
770.4,0.0033
769.6,0.0037
768.8,0.0042
768.0,0.0047
767.2,0.0040
766.4,0.0044
765.6,0.0039
764.8,0.0048
764.0,0.0044
763.2,0.0043
762.4,0.0050
761.6,0.0046
760.8,0.0045
760.0,0.0050
759.2,0.0047
758.4,0.0047
757.6,0.0045
756.8,0.0046
756.0,0.0047
755.2,0.0047
754.4,0.0042
753.6,0.0047
752.8,0.0048
752.0,0.0042
751.2,0.0045
750.4,0.0046
749.6,0.0048
748.8,0.0047
748.0,0.0041
747.2,0.0052
746.4,0.0043
745.6,0.0050
744.8,0.0048
744.0,0.0048
743.2,0.0059
742.4,0.0052
741.6,0.0050
740.8,0.0052
740.0,0.0048
739.2,0.0048
738.4,0.0051
737.6,0.0047
736.8,0.0053
736.0,0.0053
735.2,0.0060
734.4,0.0052
733.6,0.0054
732.8,0.0042
732.0,0.0049
731.2,0.0058
730.4,0.0058
729.6,0.0056
728.8,0.0055
728.0,0.0050
727.2,0.0054
726.4,0.0054
725.6,0.0054
724.8,0.0058
724.0,0.0052
723.2,0.0057
722.4,0.0060
721.6,0.0054
720.8,0.0056
720.0,0.0054
719.2,0.0055
718.4,0.0061
717.6,0.0059
716.8,0.0061
716.0,0.0057
715.2,0.0055
714.4,0.0059
713.6,0.0059
712.8,0.0057
712.0,0.0063
711.2,0.0067
710.4,0.0063
709.6,0.0065
708.8,0.0060
708.0,0.0059
707.2,0.0063
706.4,0.0066
705.6,0.0068
704.8,0.0067
704.0,0.0062
703.2,0.0061
702.4,0.0067
701.6,0.0071
700.8,0.0066
700.0,0.0067
699.2,0.0065
698.4,0.0062
697.6,0.0068
696.8,0.0070
696.0,0.0070
695.2,0.0068
694.4,0.0069
693.6,0.0069
692.8,0.0066
692.0,0.0069
691.2,0.0070
690.4,0.0074
689.6,0.0068
688.8,0.0073
688.0,0.0068
687.2,0.0071
686.4,0.0071
685.6,0.0073
684.8,0.0075
684.0,0.0072
683.2,0.0078
682.4,0.0076
681.6,0.0076
680.8,0.0075
680.0,0.0076
679.2,0.0077
678.4,0.0083
677.6,0.0081
676.8,0.0081
676.0,0.0085
675.2,0.0084
674.4,0.0082
673.6,0.0082
672.8,0.0084
672.0,0.0085
671.2,0.0085
670.4,0.0085
669.6,0.0082
668.8,0.0092
668.0,0.0088
667.2,0.0091
666.4,0.0088
665.6,0.0088
664.8,0.0087
664.0,0.0088
663.2,0.0090
662.4,0.0086
661.6,0.0084
660.8,0.0082
660.0,0.0088
659.2,0.0089
658.4,0.0087
657.6,0.0080
656.8,0.0083
656.0,0.0081
655.2,0.0079
654.4,0.0085
653.6,0.0077
652.8,0.0073
652.0,0.0079
651.2,0.0084
650.4,0.0083
649.6,0.0079
648.8,0.0077
648.0,0.0078
647.2,0.0074
646.4,0.0080
645.6,0.0074
644.8,0.0081
644.0,0.0076
643.2,0.0074
642.4,0.0072
641.6,0.0075
640.8,0.0078
640.0,0.0075
639.2,0.0073
638.4,0.0074
637.6,0.0068
636.8,0.0079
636.0,0.0072
635.2,0.0078
634.4,0.0075
633.6,0.0077
632.8,0.0076
632.0,0.0072
631.2,0.0074
630.4,0.0075
629.6,0.0076
628.8,0.0076
628.0,0.0076
627.2,0.0077
626.4,0.0072
625.6,0.0072
624.8,0.0073
624.0,0.0078
623.2,0.0074
622.4,0.0075
621.6,0.0075
620.8,0.0080
620.0,0.0075
619.2,0.0077
618.4,0.0073
617.6,0.0076
616.8,0.0069
616.0,0.0071
615.2,0.0072
614.4,0.0076
613.6,0.0068
612.8,0.0072
612.0,0.0071
611.2,0.0069
610.4,0.0067
609.6,0.0067
608.8,0.0068
608.0,0.0064
607.2,0.0062
606.4,0.0065
605.6,0.0063
604.8,0.0063
604.0,0.0060
603.2,0.0059
602.4,0.0056
601.6,0.0055
600.8,0.0059
600.0,0.0057
599.2,0.0053
598.4,0.0053
597.6,0.0052
596.8,0.0049
596.0,0.0049
595.2,0.0049
594.4,0.0047
593.6,0.0044
592.8,0.0039
592.0,0.0044
591.2,0.0040
590.4,0.0042
589.6,0.0040
588.8,0.0039
588.0,0.0040
587.2,0.0037
586.4,0.0035
585.6,0.0033
584.8,0.0032
584.0,0.0030
583.2,0.0028
582.4,0.0028
581.6,0.0025
580.8,0.0028
580.0,0.0025

File: Sample342.Sample.csv
Created as New Dataset,
nm,A
800.0,0.0045
799.2,0.0038
798.4,0.0050
797.6,0.0042
796.8,0.0039
796.0,0.0044
795.2,0.0045
794.4,0.0044
793.6,0.0042
792.8,0.0034
792.0,0.0041
791.2,0.0046
790.4,0.0037
789.6,0.0033
788.8,0.0036
788.0,0.0046
787.2,0.0043
786.4,0.0044
785.6,0.0041
784.8,0.0050
784.0,0.0046
783.2,0.0045
782.4,0.0043
781.6,0.0032
780.8,0.0043
780.0,0.0044
779.2,0.0048
778.4,0.0039
777.6,0.0047
776.8,0.0041
776.0,0.0041
775.2,0.0055
774.4,0.0040
773.6,0.0040
772.8,0.0051
772.0,0.0046
771.2,0.0041
770.4,0.0043
769.6,0.0038
768.8,0.0057
768.0,0.0055
767.2,0.0046
766.4,0.0049
765.6,0.0049
764.8,0.0050
764.0,0.0044
763.2,0.0044
762.4,0.0056
761.6,0.0050
760.8,0.0049
760.0,0.0053
759.2,0.0045
758.4,0.0054
757.6,0.0047
756.8,0.0052
756.0,0.0052
755.2,0.0052
754.4,0.0045
753.6,0.0052
752.8,0.0058
752.0,0.0047
751.2,0.0050
750.4,0.0064
749.6,0.0055
748.8,0.0049
748.0,0.0054
747.2,0.0052
746.4,0.0048
745.6,0.0059
744.8,0.0049
744.0,0.0050
743.2,0.0057
742.4,0.0057
741.6,0.0056
740.8,0.0051
740.0,0.0053
739.2,0.0056
738.4,0.0051
737.6,0.0054
736.8,0.0054
736.0,0.0056
735.2,0.0058
734.4,0.0068
733.6,0.0056
732.8,0.0053
732.0,0.0053
731.2,0.0059
730.4,0.0060
729.6,0.0062
728.8,0.0059
728.0,0.0058
727.2,0.0059
726.4,0.0059
725.6,0.0059
724.8,0.0057
724.0,0.0056
723.2,0.0060
722.4,0.0061
721.6,0.0062
720.8,0.0061
720.0,0.0059
719.2,0.0065
718.4,0.0066
717.6,0.0062
716.8,0.0067
716.0,0.0061
715.2,0.0063
714.4,0.0064
713.6,0.0063
712.8,0.0064
712.0,0.0067
711.2,0.0071
710.4,0.0066
709.6,0.0065
708.8,0.0062
708.0,0.0068
707.2,0.0069
706.4,0.0067
705.6,0.0069
704.8,0.0073
704.0,0.0067
703.2,0.0067
702.4,0.0072
701.6,0.0075
700.8,0.0066
700.0,0.0071
699.2,0.0066
698.4,0.0071
697.6,0.0067
696.8,0.0075
696.0,0.0073
695.2,0.0069
694.4,0.0070
693.6,0.0071
692.8,0.0069
692.0,0.0074
691.2,0.0076
690.4,0.0074
689.6,0.0076
688.8,0.0083
688.0,0.0076
687.2,0.0080
686.4,0.0079
685.6,0.0081
684.8,0.0082
684.0,0.0088
683.2,0.0082
682.4,0.0084
681.6,0.0087
680.8,0.0087
680.0,0.0082
679.2,0.0087
678.4,0.0090
677.6,0.0086
676.8,0.0088
676.0,0.0091
675.2,0.0089
674.4,0.0086
673.6,0.0091
672.8,0.0089
672.0,0.0090
671.2,0.0092
670.4,0.0092
669.6,0.0090
668.8,0.0096
668.0,0.0100
667.2,0.0099
666.4,0.0096
665.6,0.0099
664.8,0.0093
664.0,0.0096
663.2,0.0092
662.4,0.0093
661.6,0.0098
660.8,0.0090
660.0,0.0098
659.2,0.0097
658.4,0.0091
657.6,0.0089
656.8,0.0090
656.0,0.0088
655.2,0.0086
654.4,0.0089
653.6,0.0085
652.8,0.0088
652.0,0.0088
651.2,0.0089
650.4,0.0088
649.6,0.0086
648.8,0.0083
648.0,0.0087
647.2,0.0085
646.4,0.0089
645.6,0.0083
644.8,0.0085
644.0,0.0082
643.2,0.0082
642.4,0.0085
641.6,0.0082
640.8,0.0086
640.0,0.0080
639.2,0.0079
638.4,0.0080
637.6,0.0079
636.8,0.0085
636.0,0.0079
635.2,0.0082
634.4,0.0081
633.6,0.0082
632.8,0.0085
632.0,0.0083
631.2,0.0079
630.4,0.0080
629.6,0.0079
628.8,0.0082
628.0,0.0085
627.2,0.0088
626.4,0.0085
625.6,0.0081
624.8,0.0083
624.0,0.0081
623.2,0.0081
622.4,0.0082
621.6,0.0084
620.8,0.0084
620.0,0.0085
619.2,0.0083
618.4,0.0078
617.6,0.0080
616.8,0.0079
616.0,0.0078
615.2,0.0078
614.4,0.0087
613.6,0.0078
612.8,0.0075
612.0,0.0075
611.2,0.0076
610.4,0.0073
609.6,0.0073
608.8,0.0079
608.0,0.0076
607.2,0.0069
606.4,0.0070
605.6,0.0066
604.8,0.0069
604.0,0.0066
603.2,0.0063
602.4,0.0064
601.6,0.0064
600.8,0.0061
600.0,0.0062
599.2,0.0064
598.4,0.0059
597.6,0.0058
596.8,0.0056
596.0,0.0055
595.2,0.0053
594.4,0.0052
593.6,0.0054
592.8,0.0049
592.0,0.0052
591.2,0.0047
590.4,0.0045
589.6,0.0047
588.8,0.0047
588.0,0.0044
587.2,0.0049
586.4,0.0040
585.6,0.0038
584.8,0.0042
584.0,0.0037
583.2,0.0036
582.4,0.0032
581.6,0.0033
580.8,0.0034
580.0,0.0033

File: Sample343.Sample.csv
Created as New Dataset,
nm,A
800.0,-0.0146
799.2,-0.0141
798.4,-0.0149
797.6,-0.0157
796.8,-0.0158
796.0,-0.0158
795.2,-0.0163
794.4,-0.0164
793.6,-0.0170
792.8,-0.0172
792.0,-0.0175
791.2,-0.0187
790.4,-0.0190
789.6,-0.0200
788.8,-0.0201
788.0,-0.0197
787.2,-0.0198
786.4,-0.0211
785.6,-0.0214
784.8,-0.0211
784.0,-0.0208
783.2,-0.0208
782.4,-0.0210
781.6,-0.0221
780.8,-0.0217
780.0,-0.0205
779.2,-0.0203
778.4,-0.0208
777.6,-0.0211
776.8,-0.0202
776.0,-0.0202
775.2,-0.0212
774.4,-0.0218
773.6,-0.0209
772.8,-0.0209
772.0,-0.0205
771.2,-0.0208
770.4,-0.0201
769.6,-0.0198
768.8,-0.0186
768.0,-0.0180
767.2,-0.0177
766.4,-0.0163
765.6,-0.0157
764.8,-0.0141
764.0,-0.0135
763.2,-0.0128
762.4,-0.0122
761.6,-0.0123
760.8,-0.0122
760.0,-0.0132
759.2,-0.0143
758.4,-0.0159
757.6,-0.0177
756.8,-0.0181
756.0,-0.0206
755.2,-0.0213
754.4,-0.0229
753.6,-0.0249
752.8,-0.0259
752.0,-0.0267
751.2,-0.0275
750.4,-0.0270
749.6,-0.0281
748.8,-0.0282
748.0,-0.0286
747.2,-0.0284
746.4,-0.0284
745.6,-0.0275
744.8,-0.0286
744.0,-0.0285
743.2,-0.0283
742.4,-0.0287
741.6,-0.0284
740.8,-0.0288
740.0,-0.0290
739.2,-0.0290
738.4,-0.0277
737.6,-0.0269
736.8,-0.0253
736.0,-0.0238
735.2,-0.0231
734.4,-0.0211
733.6,-0.0203
732.8,-0.0196
732.0,-0.0181
731.2,-0.0183
730.4,-0.0177
729.6,-0.0189
728.8,-0.0193
728.0,-0.0204
727.2,-0.0219
726.4,-0.0219
725.6,-0.0234
724.8,-0.0244
724.0,-0.0249
723.2,-0.0254
722.4,-0.0253
721.6,-0.0260
720.8,-0.0263
720.0,-0.0270
719.2,-0.0266
718.4,-0.0268
717.6,-0.0265
716.8,-0.0252
716.0,-0.0245
715.2,-0.0235
714.4,-0.0220
713.6,-0.0213
712.8,-0.0207
712.0,-0.0201
711.2,-0.0200
710.4,-0.0218
709.6,-0.0228
708.8,-0.0246
708.0,-0.0252
707.2,-0.0261
706.4,-0.0273
705.6,-0.0274
704.8,-0.0277
704.0,-0.0282
703.2,-0.0287
702.4,-0.0285
701.6,-0.0277
700.8,-0.0275
700.0,-0.0261
699.2,-0.0246
698.4,-0.0232
697.6,-0.0222
696.8,-0.0202
696.0,-0.0195
695.2,-0.0198
694.4,-0.0193
693.6,-0.0193
692.8,-0.0198
692.0,-0.0200
691.2,-0.0205
690.4,-0.0212
689.6,-0.0226
688.8,-0.0234
688.0,-0.0243
687.2,-0.0250
686.4,-0.0249
685.6,-0.0257
684.8,-0.0263
684.0,-0.0262
683.2,-0.0265
682.4,-0.0264
681.6,-0.0266
680.8,-0.0269
680.0,-0.0274
679.2,-0.0273
678.4,-0.0271
677.6,-0.0276
676.8,-0.0278
676.0,-0.0278
675.2,-0.0278
674.4,-0.0276
673.6,-0.0278
672.8,-0.0274
672.0,-0.0280
671.2,-0.0272
670.4,-0.0274
669.6,-0.0274
668.8,-0.0267
668.0,-0.0267
667.2,-0.0260
666.4,-0.0264
665.6,-0.0261
664.8,-0.0259
664.0,-0.0260
663.2,-0.0259
662.4,-0.0261
661.6,-0.0257
660.8,-0.0258
660.0,-0.0256
659.2,-0.0250
658.4,-0.0259
657.6,-0.0255
656.8,-0.0253
656.0,-0.0257
655.2,-0.0258
654.4,-0.0256
653.6,-0.0262
652.8,-0.0263
652.0,-0.0263
651.2,-0.0263
650.4,-0.0262
649.6,-0.0274
648.8,-0.0275
648.0,-0.0272
647.2,-0.0277
646.4,-0.0278
645.6,-0.0282
644.8,-0.0277
644.0,-0.0288
643.2,-0.0294
642.4,-0.0293
641.6,-0.0300
640.8,-0.0297
640.0,-0.0309
639.2,-0.0314
638.4,-0.0315
637.6,-0.0319
636.8,-0.0322
636.0,-0.0330
635.2,-0.0326
634.4,-0.0337
633.6,-0.0336
632.8,-0.0336
632.0,-0.0343
631.2,-0.0353
630.4,-0.0352
629.6,-0.0355
628.8,-0.0355
628.0,-0.0359
627.2,-0.0360
626.4,-0.0368
625.6,-0.0375
624.8,-0.0373
624.0,-0.0375
623.2,-0.0380
622.4,-0.0386
621.6,-0.0386
620.8,-0.0387
620.0,-0.0394
619.2,-0.0395
618.4,-0.0401
617.6,-0.0397
616.8,-0.0402
616.0,-0.0405
615.2,-0.0408
614.4,-0.0407
613.6,-0.0412
612.8,-0.0413
612.0,-0.0411
611.2,-0.0414
610.4,-0.0417
609.6,-0.0419
608.8,-0.0416
608.0,-0.0414
607.2,-0.0421
606.4,-0.0420
605.6,-0.0420
604.8,-0.0418
604.0,-0.0420
603.2,-0.0418
602.4,-0.0415
601.6,-0.0416
600.8,-0.0417
600.0,-0.0416
599.2,-0.0414
598.4,-0.0413
597.6,-0.0413
596.8,-0.0416
596.0,-0.0416
595.2,-0.0415
594.4,-0.0414
593.6,-0.0420
592.8,-0.0418
592.0,-0.0416
591.2,-0.0418
590.4,-0.0421
589.6,-0.0423
588.8,-0.0424
588.0,-0.0425
587.2,-0.0427
586.4,-0.0428
585.6,-0.0433
584.8,-0.0431
584.0,-0.0436
583.2,-0.0439
582.4,-0.0443
581.6,-0.0446
580.8,-0.0441
580.0,-0.0443

File: Sample344.Sample.csv
Created as New Dataset,
nm,A
800.0,-0.0138
799.2,-0.0146
798.4,-0.0151
797.6,-0.0155
796.8,-0.0159
796.0,-0.0150
795.2,-0.0158
794.4,-0.0169
793.6,-0.0172
792.8,-0.0177
792.0,-0.0173
791.2,-0.0180
790.4,-0.0195
789.6,-0.0192
788.8,-0.0201
788.0,-0.0195
787.2,-0.0197
786.4,-0.0201
785.6,-0.0215
784.8,-0.0211
784.0,-0.0201
783.2,-0.0206
782.4,-0.0218
781.6,-0.0217
780.8,-0.0214
780.0,-0.0204
779.2,-0.0211
778.4,-0.0206
777.6,-0.0206
776.8,-0.0205
776.0,-0.0211
775.2,-0.0202
774.4,-0.0215
773.6,-0.0207
772.8,-0.0207
772.0,-0.0201
771.2,-0.0208
770.4,-0.0199
769.6,-0.0203
768.8,-0.0181
768.0,-0.0175
767.2,-0.0173
766.4,-0.0163
765.6,-0.0155
764.8,-0.0148
764.0,-0.0138
763.2,-0.0129
762.4,-0.0119
761.6,-0.0121
760.8,-0.0125
760.0,-0.0125
759.2,-0.0140
758.4,-0.0151
757.6,-0.0165
756.8,-0.0181
756.0,-0.0193
755.2,-0.0218
754.4,-0.0227
753.6,-0.0236
752.8,-0.0251
752.0,-0.0264
751.2,-0.0273
750.4,-0.0273
749.6,-0.0278
748.8,-0.0286
748.0,-0.0288
747.2,-0.0279
746.4,-0.0284
745.6,-0.0277
744.8,-0.0276
744.0,-0.0281
743.2,-0.0276
742.4,-0.0285
741.6,-0.0287
740.8,-0.0286
740.0,-0.0289
739.2,-0.0288
738.4,-0.0274
737.6,-0.0265
736.8,-0.0255
736.0,-0.0241
735.2,-0.0228
734.4,-0.0208
733.6,-0.0205
732.8,-0.0191
732.0,-0.0184
731.2,-0.0181
730.4,-0.0172
729.6,-0.0179
728.8,-0.0188
728.0,-0.0201
727.2,-0.0212
726.4,-0.0216
725.6,-0.0233
724.8,-0.0245
724.0,-0.0248
723.2,-0.0250
722.4,-0.0251
721.6,-0.0256
720.8,-0.0262
720.0,-0.0263
719.2,-0.0263
718.4,-0.0265
717.6,-0.0263
716.8,-0.0250
716.0,-0.0245
715.2,-0.0232
714.4,-0.0216
713.6,-0.0213
712.8,-0.0205
712.0,-0.0202
711.2,-0.0204
710.4,-0.0219
709.6,-0.0224
708.8,-0.0238
708.0,-0.0245
707.2,-0.0262
706.4,-0.0268
705.6,-0.0269
704.8,-0.0269
704.0,-0.0274
703.2,-0.0283
702.4,-0.0279
701.6,-0.0272
700.8,-0.0276
700.0,-0.0255
699.2,-0.0247
698.4,-0.0230
697.6,-0.0218
696.8,-0.0202
696.0,-0.0198
695.2,-0.0194
694.4,-0.0196
693.6,-0.0190
692.8,-0.0196
692.0,-0.0195
691.2,-0.0207
690.4,-0.0210
689.6,-0.0224
688.8,-0.0229
688.0,-0.0241
687.2,-0.0244
686.4,-0.0251
685.6,-0.0255
684.8,-0.0259
684.0,-0.0261
683.2,-0.0262
682.4,-0.0267
681.6,-0.0266
680.8,-0.0270
680.0,-0.0267
679.2,-0.0272
678.4,-0.0270
677.6,-0.0273
676.8,-0.0275
676.0,-0.0271
675.2,-0.0277
674.4,-0.0271
673.6,-0.0277
672.8,-0.0273
672.0,-0.0270
671.2,-0.0271
670.4,-0.0273
669.6,-0.0274
668.8,-0.0262
668.0,-0.0262
667.2,-0.0262
666.4,-0.0263
665.6,-0.0257
664.8,-0.0258
664.0,-0.0258
663.2,-0.0255
662.4,-0.0258
661.6,-0.0251
660.8,-0.0257
660.0,-0.0249
659.2,-0.0248
658.4,-0.0250
657.6,-0.0253
656.8,-0.0254
656.0,-0.0253
655.2,-0.0254
654.4,-0.0254
653.6,-0.0259
652.8,-0.0261
652.0,-0.0256
651.2,-0.0258
650.4,-0.0260
649.6,-0.0267
648.8,-0.0271
648.0,-0.0266
647.2,-0.0273
646.4,-0.0274
645.6,-0.0281
644.8,-0.0278
644.0,-0.0286
643.2,-0.0288
642.4,-0.0289
641.6,-0.0295
640.8,-0.0293
640.0,-0.0301
639.2,-0.0309
638.4,-0.0311
637.6,-0.0318
636.8,-0.0313
636.0,-0.0324
635.2,-0.0325
634.4,-0.0335
633.6,-0.0334
632.8,-0.0338
632.0,-0.0339
631.2,-0.0344
630.4,-0.0348
629.6,-0.0353
628.8,-0.0354
628.0,-0.0354
627.2,-0.0358
626.4,-0.0367
625.6,-0.0370
624.8,-0.0369
624.0,-0.0374
623.2,-0.0380
622.4,-0.0384
621.6,-0.0384
620.8,-0.0383
620.0,-0.0389
619.2,-0.0391
618.4,-0.0397
617.6,-0.0396
616.8,-0.0401
616.0,-0.0399
615.2,-0.0400
614.4,-0.0396
613.6,-0.0399
612.8,-0.0407
612.0,-0.0404
611.2,-0.0409
610.4,-0.0413
609.6,-0.0409
608.8,-0.0409
608.0,-0.0407
607.2,-0.0412
606.4,-0.0410
605.6,-0.0411
604.8,-0.0408
604.0,-0.0409
603.2,-0.0412
602.4,-0.0407
601.6,-0.0407
600.8,-0.0409
600.0,-0.0408
599.2,-0.0407
598.4,-0.0402
597.6,-0.0406
596.8,-0.0408
596.0,-0.0406
595.2,-0.0407
594.4,-0.0408
593.6,-0.0407
592.8,-0.0409
592.0,-0.0408
591.2,-0.0413
590.4,-0.0412
589.6,-0.0414
588.8,-0.0412
588.0,-0.0413
587.2,-0.0419
586.4,-0.0419
585.6,-0.0423
584.8,-0.0423
584.0,-0.0428
583.2,-0.0427
582.4,-0.0431
581.6,-0.0433
580.8,-0.0434
580.0,-0.0435