Folder: Rawdata_Ru_MoS2/Figure1/UV-vis

Note: Figure1/UV-vis/experiment log book.txt
Sample333: monolayer1_1
Sample334: monolayer1_2
Sample335: monolayer1_3
Sample336: monolayer1_4
Sample337: monolayer1_5

Sample338: monolayer2_1
Sample339: monolayer2_2
Sample340: monolayer2_3
Sample341: monolayer2_4
Sample342: monolayer2_5

Sample343: bulk1_1
Sample344: bulk1_2
Sample345: bulk1_3

Sample346: monolayer3_1
Sample347: monolayer3_2
Sample348: monolayer3_3
Sample349: monolayer3_4
Sample350: monolayer3_5

Note: README.md
all the data are included in the related folder and with a readme file

File: Sample333.Sample.csv
Created as New Dataset,
nm,A
800.0,-0.0009
799.2,-0.0023
798.4,-0.0018
797.6,-0.0021
796.8,-0.0018
796.0,-0.0018
795.2,-0.0017
794.4,-0.0016
793.6,-0.0022
792.8,-0.0025
792.0,-0.0020
791.2,-0.0020
790.4,-0.0021
789.6,-0.0023
788.8,-0.0021
788.0,-0.0015
787.2,-0.0015
786.4,-0.0018
785.6,-0.0029
784.8,-0.0021
784.0,-0.0025
783.2,-0.0019
782.4,-0.0015
781.6,-0.0022
780.8,-0.0030
780.0,-0.0021
779.2,-0.0020
778.4,-0.0016
777.6,-0.0015
776.8,-0.0019
776.0,-0.0025
775.2,-0.0018
774.4,-0.0017
773.6,-0.0018
772.8,-0.0013
772.0,-0.0014
771.2,-0.0022
770.4,-0.0025
769.6,-0.0023
768.8,-0.0011
768.0,-0.0011
767.2,-0.0014
766.4,-0.0014
765.6,-0.0019
764.8,-0.0014
764.0,-0.0011
763.2,-0.0009
762.4,-0.0009
761.6,-0.0008
760.8,-0.0004
760.0,-0.0007
759.2,-0.0004
758.4,-0.0008
757.6,-0.0010
756.8,-0.0007
756.0,-0.0007
755.2,-0.0003
754.4,-0.0002
753.6,-0.0004
752.8,0.0001
752.0,-0.0007
751.2,-0.0007
750.4,0.0004
749.6,-0.0000
748.8,-0.0006
748.0,-0.0006
747.2,0.0000
746.4,-0.0008
745.6,-0.0003
744.8,-0.0006
744.0,0.0000
743.2,0.0005
742.4,-0.0005
741.6,-0.0001
740.8,0.0008
740.0,-0.0009
739.2,-0.0007
738.4,-0.0002
737.6,0.0002
736.8,0.0001
736.0,0.0002
735.2,-0.0001
734.4,0.0004
733.6,-0.0004
732.8,-0.0004
732.0,-0.0008
731.2,-0.0003
730.4,0.0004
729.6,0.0002
728.8,-0.0001
728.0,-0.0009
727.2,0.0000
726.4,-0.0003
725.6,-0.0000
724.8,-0.0003
724.0,-0.0006
723.2,0.0001
722.4,-0.0002
721.6,-0.0003
720.8,0.0003
720.0,-0.0002
719.2,-0.0001
718.4,0.0000
717.6,-0.0001
716.8,0.0004
716.0,0.0002
715.2,0.0005
714.4,0.0004
713.6,0.0006
712.8,0.0005
712.0,0.0011
711.2,0.0016
710.4,0.0011
709.6,0.0018
708.8,0.0009
708.0,0.0012
707.2,0.0020
706.4,0.0017
705.6,0.0021
704.8,0.0025
704.0,0.0015
703.2,0.0018
702.4,0.0018
701.6,0.0024
700.8,0.0017
700.0,0.0024
699.2,0.0019
698.4,0.0020
697.6,0.0022
696.8,0.0027
696.0,0.0022
695.2,0.0021
694.4,0.0023
693.6,0.0019
692.8,0.0022
692.0,0.0023
691.2,0.0023
690.4,0.0024
689.6,0.0022
688.8,0.0032
688.0,0.0021
687.2,0.0029
686.4,0.0031
685.6,0.0035
684.8,0.0030
684.0,0.0036
683.2,0.0037
682.4,0.0033
681.6,0.0037
680.8,0.0027
680.0,0.0036
679.2,0.0035
678.4,0.0042
677.6,0.0042
676.8,0.0040
676.0,0.0042
675.2,0.0041
674.4,0.0042
673.6,0.0043
672.8,0.0050
672.0,0.0047
671.2,0.0051
670.4,0.0045
669.6,0.0049
668.8,0.0058
668.0,0.0058
667.2,0.0057
666.4,0.0056
665.6,0.0059
664.8,0.0057
664.0,0.0059
663.2,0.0057
662.4,0.0055
661.6,0.0056
660.8,0.0054
660.0,0.0055
659.2,0.0059
658.4,0.0058
657.6,0.0053
656.8,0.0055
656.0,0.0052
655.2,0.0048
654.4,0.0053
653.6,0.0048
652.8,0.0043
652.0,0.0048
651.2,0.0047
650.4,0.0048
649.6,0.0044
648.8,0.0039
648.0,0.0046
647.2,0.0041
646.4,0.0040
645.6,0.0037
644.8,0.0043
644.0,0.0038
643.2,0.0042
642.4,0.0039
641.6,0.0038
640.8,0.0036
640.0,0.0035
639.2,0.0037
638.4,0.0037
637.6,0.0032
636.8,0.0033
636.0,0.0035
635.2,0.0034
634.4,0.0035
633.6,0.0037
632.8,0.0038
632.0,0.0032
631.2,0.0032
630.4,0.0035
629.6,0.0033
628.8,0.0032
628.0,0.0033
627.2,0.0038
626.4,0.0033
625.6,0.0029
624.8,0.0033
624.0,0.0032
623.2,0.0031
622.4,0.0030
621.6,0.0033
620.8,0.0032
620.0,0.0032
619.2,0.0031
618.4,0.0027
617.6,0.0027
616.8,0.0023
616.0,0.0024
615.2,0.0025
614.4,0.0030
613.6,0.0024
612.8,0.0025
612.0,0.0021
611.2,0.0018
610.4,0.0021
609.6,0.0015
608.8,0.0017
608.0,0.0015
607.2,0.0009
606.4,0.0013
605.6,0.0009
604.8,0.0012
604.0,0.0008
603.2,0.0004
602.4,0.0006
601.6,0.0002
600.8,0.0000
600.0,0.0000
599.2,-0.0002
598.4,-0.0003
597.6,-0.0003
596.8,-0.0011
596.0,-0.0010
595.2,-0.0014
594.4,-0.0019
593.6,-0.0019
592.8,-0.0017
592.0,-0.0022
591.2,-0.0023
590.4,-0.0025
589.6,-0.0021
588.8,-0.0024
588.0,-0.0030
587.2,-0.0032
586.4,-0.0032
585.6,-0.0036
584.8,-0.0036
584.0,-0.0039
583.2,-0.0040
582.4,-0.0045
581.6,-0.0049
580.8,-0.0045
580.0,-0.0047

File: Sample334.Sample.csv
Created as New Dataset,
nm,A
800.0,-0.0003
799.2,-0.0012
798.4,-0.0008
797.6,-0.0027
796.8,-0.0016
796.0,-0.0017
795.2,-0.0011
794.4,-0.0015
793.6,-0.0013
792.8,-0.0019
792.0,-0.0017
791.2,-0.0012
790.4,-0.0017
789.6,-0.0023
788.8,-0.0016
788.0,-0.0017
787.2,-0.0011
786.4,-0.0013
785.6,-0.0018
784.8,-0.0007
784.0,-0.0013
783.2,-0.0018
782.4,-0.0018
781.6,-0.0021
780.8,-0.0024
780.0,-0.0018
779.2,-0.0015
778.4,-0.0021
777.6,-0.0009
776.8,-0.0022
776.0,-0.0024
775.2,-0.0010
774.4,-0.0018
773.6,-0.0013
772.8,-0.0015
772.0,-0.0016
771.2,-0.0024
770.4,-0.0022
769.6,-0.0021
768.8,-0.0008
768.0,-0.0007
767.2,-0.0012
766.4,-0.0007
765.6,-0.0012
764.8,-0.0007
764.0,-0.0008
763.2,-0.0006
762.4,-0.0001
761.6,-0.0002
760.8,-0.0001
760.0,0.0002
759.2,0.0001
758.4,-0.0005
757.6,-0.0004
756.8,-0.0002
756.0,-0.0005
755.2,-0.0002
754.4,-0.0000
753.6,-0.0007
752.8,0.0004
752.0,-0.0002
751.2,-0.0004
750.4,0.0001
749.6,0.0001
748.8,-0.0005
748.0,-0.0001
747.2,0.0007
746.4,-0.0004
745.6,0.0005
744.8,-0.0002
744.0,0.0001
743.2,0.0008
742.4,-0.0001
741.6,0.0003
740.8,0.0004
740.0,0.0001
739.2,-0.0001
738.4,0.0008
737.6,0.0007
736.8,0.0004
736.0,0.0005
735.2,0.0007
734.4,0.0005
733.6,0.0002
732.8,-0.0003
732.0,0.0006
731.2,0.0005
730.4,0.0006
729.6,0.0005
728.8,0.0003
728.0,-0.0001
727.2,0.0002
726.4,0.0008
725.6,-0.0000
724.8,0.0002
724.0,0.0001
723.2,0.0005
722.4,0.0003
721.6,0.0002
720.8,0.0005
720.0,0.0003
719.2,0.0002
718.4,0.0008
717.6,0.0003
716.8,0.0011
716.0,0.0010
715.2,0.0010
714.4,0.0012
713.6,0.0010
712.8,0.0012
712.0,0.0019
711.2,0.0020
710.4,0.0017
709.6,0.0018
708.8,0.0015
708.0,0.0025
707.2,0.0017
706.4,0.0021
705.6,0.0028
704.8,0.0029
704.0,0.0027
703.2,0.0026
702.4,0.0025
701.6,0.0031
700.8,0.0027
700.0,0.0028
699.2,0.0023
698.4,0.0026
697.6,0.0023
696.8,0.0033
696.0,0.0024
695.2,0.0022
694.4,0.0024
693.6,0.0027
692.8,0.0029
692.0,0.0031
691.2,0.0030
690.4,0.0030
689.6,0.0031
688.8,0.0038
688.0,0.0029
687.2,0.0036
686.4,0.0037
685.6,0.0038
684.8,0.0039
684.0,0.0036
683.2,0.0040
682.4,0.0043
681.6,0.0040
680.8,0.0040
680.0,0.0044
679.2,0.0046
678.4,0.0041
677.6,0.0048
676.8,0.0045
676.0,0.0051
675.2,0.0048
674.4,0.0048
673.6,0.0052
672.8,0.0054
672.0,0.0049
671.2,0.0060
670.4,0.0059
669.6,0.0057
668.8,0.0062
668.0,0.0062
667.2,0.0065
666.4,0.0062
665.6,0.0067
664.8,0.0063
664.0,0.0061
663.2,0.0065
662.4,0.0062
661.6,0.0061
660.8,0.0058
660.0,0.0063
659.2,0.0061
658.4,0.0063
657.6,0.0057
656.8,0.0059
656.0,0.0057
655.2,0.0054
654.4,0.0058
653.6,0.0049
652.8,0.0048
652.0,0.0049
651.2,0.0053
650.4,0.0057
649.6,0.0045
648.8,0.0048
648.0,0.0049
647.2,0.0048
646.4,0.0048
645.6,0.0042
644.8,0.0046
644.0,0.0044
643.2,0.0043
642.4,0.0043
641.6,0.0040
640.8,0.0042
640.0,0.0040
639.2,0.0042
638.4,0.0046
637.6,0.0041
636.8,0.0044
636.0,0.0037
635.2,0.0041
634.4,0.0042
633.6,0.0042
632.8,0.0044
632.0,0.0037
631.2,0.0035
630.4,0.0036
629.6,0.0037
628.8,0.0038
628.0,0.0042
627.2,0.0042
626.4,0.0037
625.6,0.0037
624.8,0.0039
624.0,0.0038
623.2,0.0039
622.4,0.0036
621.6,0.0036
620.8,0.0037
620.0,0.0035
619.2,0.0037
618.4,0.0032
617.6,0.0033
616.8,0.0031
616.0,0.0030
615.2,0.0030
614.4,0.0034
613.6,0.0027
612.8,0.0029
612.0,0.0029
611.2,0.0024
610.4,0.0024
609.6,0.0023
608.8,0.0024
608.0,0.0023
607.2,0.0016
606.4,0.0019
605.6,0.0015
604.8,0.0014
604.0,0.0010
603.2,0.0008
602.4,0.0012
601.6,0.0009
600.8,0.0006
600.0,0.0003
599.2,0.0002
598.4,0.0002
597.6,0.0000
596.8,-0.0006
596.0,-0.0006
595.2,-0.0008
594.4,-0.0007
593.6,-0.0011
592.8,-0.0010
592.0,-0.0010
591.2,-0.0016
590.4,-0.0018
589.6,-0.0021
588.8,-0.0023
588.0,-0.0019
587.2,-0.0027
586.4,-0.0026
585.6,-0.0031
584.8,-0.0030
584.0,-0.0037
583.2,-0.0035
582.4,-0.0040
581.6,-0.0042
580.8,-0.0038
580.0,-0.0040

File: Sample335.Sample.csv
Created as New Dataset,
nm,A
800.0,-0.0006
799.2,0.0000
798.4,-0.0008
797.6,-0.0012
796.8,-0.0008
796.0,-0.0009
795.2,0.0001
794.4,-0.0004
793.6,-0.0004
792.8,-0.0011
792.0,-0.0004
791.2,-0.0010
790.4,-0.0015
789.6,-0.0014
788.8,-0.0009
788.0,-0.0006
787.2,-0.0007
786.4,-0.0002
785.6,-0.0007
784.8,-0.0008
784.0,-0.0006
783.2,-0.0004
782.4,-0.0006
781.6,-0.0018
780.8,-0.0014
780.0,-0.0011
779.2,-0.0008
778.4,-0.0013
777.6,-0.0005
776.8,-0.0010
776.0,-0.0021
775.2,-0.0002
774.4,-0.0014
773.6,-0.0013
772.8,-0.0005
772.0,-0.0012
771.2,-0.0017
770.4,-0.0019
769.6,-0.0005
768.8,-0.0004
768.0,-0.0005
767.2,0.0003
766.4,0.0001
765.6,-0.0003
764.8,0.0000
764.0,0.0002
763.2,0.0006
762.4,0.0005
761.6,-0.0002
760.8,0.0009
760.0,0.0006
759.2,0.0001
758.4,0.0012
757.6,-0.0000
756.8,0.0000
756.0,-0.0002
755.2,0.0006
754.4,-0.0000
753.6,-0.0000
752.8,0.0008
752.0,0.0006
751.2,0.0005
750.4,0.0018
749.6,0.0009
748.8,0.0001
748.0,0.0002
747.2,0.0008
746.4,-0.0000
745.6,0.0017
744.8,0.0005
744.0,0.0012
743.2,0.0015
742.4,0.0006
741.6,0.0008
740.8,0.0007
740.0,0.0004
739.2,0.0004
738.4,0.0007
737.6,0.0008
736.8,0.0016
736.0,0.0008
735.2,0.0011
734.4,0.0013
733.6,0.0006
732.8,0.0000
732.0,0.0009
731.2,0.0013
730.4,0.0010
729.6,0.0012
728.8,0.0011
728.0,0.0010
727.2,0.0008
726.4,0.0008
725.6,0.0008
724.8,0.0005
724.0,0.0004
723.2,0.0010
722.4,0.0009
721.6,0.0010
720.8,0.0012
720.0,0.0012
719.2,0.0007
718.4,0.0012
717.6,0.0016
716.8,0.0019
716.0,0.0016
715.2,0.0017
714.4,0.0016
713.6,0.0019
712.8,0.0016
712.0,0.0021
711.2,0.0023
710.4,0.0027
709.6,0.0031
708.8,0.0019
708.0,0.0026
707.2,0.0027
706.4,0.0025
705.6,0.0028
704.8,0.0032
704.0,0.0033
703.2,0.0029
702.4,0.0025
701.6,0.0037
700.8,0.0031
700.0,0.0033
699.2,0.0029
698.4,0.0034
697.6,0.0031
696.8,0.0035
696.0,0.0038
695.2,0.0031
694.4,0.0033
693.6,0.0033
692.8,0.0036
692.0,0.0040
691.2,0.0037
690.4,0.0039
689.6,0.0037
688.8,0.0038
688.0,0.0036
687.2,0.0033
686.4,0.0044
685.6,0.0043
684.8,0.0045
684.0,0.0042
683.2,0.0039
682.4,0.0049
681.6,0.0048
680.8,0.0045
680.0,0.0048
679.2,0.0048
678.4,0.0051
677.6,0.0053
676.8,0.0052
676.0,0.0055
675.2,0.0056
674.4,0.0055
673.6,0.0061
672.8,0.0057
672.0,0.0060
671.2,0.0061
670.4,0.0061
669.6,0.0062
668.8,0.0071
668.0,0.0068
667.2,0.0071
666.4,0.0069
665.6,0.0071
664.8,0.0067
664.0,0.0066
663.2,0.0066
662.4,0.0066
661.6,0.0067
660.8,0.0060
660.0,0.0070
659.2,0.0073
658.4,0.0068
657.6,0.0063
656.8,0.0063
656.0,0.0063
655.2,0.0064
654.4,0.0064
653.6,0.0058
652.8,0.0054
652.0,0.0057
651.2,0.0058
650.4,0.0058
649.6,0.0056
648.8,0.0053
648.0,0.0054
647.2,0.0053
646.4,0.0053
645.6,0.0048
644.8,0.0052
644.0,0.0049
643.2,0.0045
642.4,0.0050
641.6,0.0046
640.8,0.0053
640.0,0.0049
639.2,0.0047
638.4,0.0051
637.6,0.0043
636.8,0.0048
636.0,0.0043
635.2,0.0052
634.4,0.0044
633.6,0.0045
632.8,0.0046
632.0,0.0044
631.2,0.0043
630.4,0.0045
629.6,0.0041
628.8,0.0045
628.0,0.0045
627.2,0.0047
626.4,0.0047
625.6,0.0044
624.8,0.0043
624.0,0.0043
623.2,0.0041
622.4,0.0041
621.6,0.0043
620.8,0.0047
620.0,0.0045
619.2,0.0040
618.4,0.0040
617.6,0.0040
616.8,0.0036
616.0,0.0037
615.2,0.0038
614.4,0.0038
613.6,0.0032
612.8,0.0038
612.0,0.0036
611.2,0.0033
610.4,0.0033
609.6,0.0027
608.8,0.0027
608.0,0.0029
607.2,0.0024
606.4,0.0021
605.6,0.0022
604.8,0.0021
604.0,0.0018
603.2,0.0019
602.4,0.0017
601.6,0.0013
600.8,0.0012
600.0,0.0013
599.2,0.0009
598.4,0.0006
597.6,0.0008
596.8,0.0003
596.0,0.0002
595.2,-0.0003
594.4,-0.0001
593.6,-0.0007
592.8,-0.0004
592.0,-0.0006
591.2,-0.0011
590.4,-0.0017
589.6,-0.0013
588.8,-0.0017
588.0,-0.0015
587.2,-0.0019
586.4,-0.0021
585.6,-0.0025
584.8,-0.0024
584.0,-0.0029
583.2,-0.0028
582.4,-0.0030
581.6,-0.0034
580.8,-0.0035
580.0,-0.0037

File: Sample336.Sample.csv
Created as New Dataset,
nm,A
800.0,0.0005
799.2,-0.0001
798.4,-0.0002
797.6,-0.0008
796.8,-0.0000
796.0,0.0004
795.2,0.0010
794.4,-0.0006
793.6,0.0007
792.8,-0.0002
792.0,0.0005
791.2,0.0001
790.4,-0.0014
789.6,-0.0006
788.8,-0.0003
788.0,-0.0005
787.2,-0.0002
786.4,-0.0001
785.6,-0.0008
784.8,-0.0006
784.0,0.0003
783.2,0.0006
782.4,-0.0001
781.6,-0.0015
780.8,-0.0005
780.0,-0.0005
779.2,0.0006
778.4,-0.0015
777.6,-0.0000
776.8,0.0003
776.0,-0.0000
775.2,0.0002
774.4,-0.0004
773.6,0.0002
772.8,-0.0003
772.0,0.0004
771.2,-0.0002
770.4,-0.0010
769.6,0.0002
768.8,0.0004
768.0,0.0010
767.2,0.0003
766.4,0.0003
765.6,0.0001
764.8,0.0006
764.0,0.0007
763.2,0.0009
762.4,0.0013
761.6,0.0006
760.8,0.0009
760.0,0.0012
759.2,0.0013
758.4,0.0010
757.6,0.0007
756.8,0.0014
756.0,0.0009
755.2,0.0007
754.4,0.0005
753.6,0.0009
752.8,0.0022
752.0,0.0005
751.2,0.0013
750.4,0.0019
749.6,0.0013
748.8,0.0017
748.0,0.0010
747.2,0.0021
746.4,0.0016
745.6,0.0019
744.8,0.0016
744.0,0.0016
743.2,0.0023
742.4,0.0020
741.6,0.0014
740.8,0.0020
740.0,0.0012
739.2,0.0009
738.4,0.0012
737.6,0.0015
736.8,0.0019
736.0,0.0015
735.2,0.0018
734.4,0.0011
733.6,0.0017
732.8,0.0007
732.0,0.0008
731.2,0.0021
730.4,0.0017
729.6,0.0018
728.8,0.0014
728.0,0.0018
727.2,0.0010
726.4,0.0018
725.6,0.0014
724.8,0.0015
724.0,0.0009
723.2,0.0021
722.4,0.0019
721.6,0.0014
720.8,0.0017
720.0,0.0016
719.2,0.0013
718.4,0.0023
717.6,0.0018
716.8,0.0023
716.0,0.0019
715.2,0.0024
714.4,0.0023
713.6,0.0022
712.8,0.0027
712.0,0.0029
711.2,0.0033
710.4,0.0029
709.6,0.0033
708.8,0.0032
708.0,0.0028
707.2,0.0032
706.4,0.0033
705.6,0.0036
704.8,0.0039
704.0,0.0035
703.2,0.0039
702.4,0.0038
701.6,0.0041
700.8,0.0035
700.0,0.0039
699.2,0.0035
698.4,0.0037
697.6,0.0037
696.8,0.0044
696.0,0.0042
695.2,0.0037
694.4,0.0038
693.6,0.0039
692.8,0.0039
692.0,0.0041
691.2,0.0041
690.4,0.0041
689.6,0.0039
688.8,0.0050
688.0,0.0045
687.2,0.0045
686.4,0.0052
685.6,0.0046
684.8,0.0049
684.0,0.0053
683.2,0.0052
682.4,0.0047
681.6,0.0057
680.8,0.0053
680.0,0.0051
679.2,0.0051
678.4,0.0062
677.6,0.0059
676.8,0.0057
676.0,0.0062
675.2,0.0063
674.4,0.0066
673.6,0.0062
672.8,0.0065
672.0,0.0069
671.2,0.0070
670.4,0.0069
669.6,0.0066
668.8,0.0071
668.0,0.0076
667.2,0.0075
666.4,0.0075
665.6,0.0076
664.8,0.0078
664.0,0.0076
663.2,0.0073
662.4,0.0071
661.6,0.0079
660.8,0.0069
660.0,0.0076
659.2,0.0077
658.4,0.0075
657.6,0.0069
656.8,0.0067
656.0,0.0072
655.2,0.0066
654.4,0.0069
653.6,0.0063
652.8,0.0060
652.0,0.0064
651.2,0.0067
650.4,0.0065
649.6,0.0062
648.8,0.0057
648.0,0.0063
647.2,0.0056
646.4,0.0057
645.6,0.0055
644.8,0.0062
644.0,0.0059
643.2,0.0057
642.4,0.0057
641.6,0.0052
640.8,0.0059
640.0,0.0052
639.2,0.0056
638.4,0.0051
637.6,0.0046
636.8,0.0055
636.0,0.0049
635.2,0.0054
634.4,0.0048
633.6,0.0051
632.8,0.0052
632.0,0.0050
631.2,0.0051
630.4,0.0046
629.6,0.0048
628.8,0.0051
628.0,0.0052
627.2,0.0054
626.4,0.0052
625.6,0.0047
624.8,0.0050
624.0,0.0051
623.2,0.0048
622.4,0.0045
621.6,0.0049
620.8,0.0051
620.0,0.0048
619.2,0.0046
618.4,0.0042
617.6,0.0047
616.8,0.0040
616.0,0.0044
615.2,0.0044
614.4,0.0048
613.6,0.0039
612.8,0.0040
612.0,0.0040
611.2,0.0038
610.4,0.0036
609.6,0.0037
608.8,0.0035
608.0,0.0036
607.2,0.0030
606.4,0.0028
605.6,0.0029
604.8,0.0027
604.0,0.0026
603.2,0.0023
602.4,0.0024
601.6,0.0020
600.8,0.0018
600.0,0.0019
599.2,0.0015
598.4,0.0013
597.6,0.0012
596.8,0.0008
596.0,0.0005
595.2,0.0002
594.4,0.0007
593.6,-0.0003
592.8,-0.0001
592.0,-0.0003
591.2,-0.0007
590.4,-0.0004
589.6,-0.0009
588.8,-0.0011
588.0,-0.0010
587.2,-0.0013
586.4,-0.0014
585.6,-0.0020
584.8,-0.0019
584.0,-0.0020
583.2,-0.0023
582.4,-0.0028
581.6,-0.0030
580.8,-0.0029
580.0,-0.0030

File: Sample337.Sample.csv
Created as New Dataset,
nm,A
800.0,-0.0002
799.2,0.0004
798.4,0.0009
797.6,-0.0006
796.8,0.0007
796.0,0.0006
795.2,0.0004
794.4,0.0004
793.6,-0.0002
792.8,0.0007
792.0,0.0003
791.2,0.0002
790.4,0.0003
789.6,0.0001
788.8,-0.0002
788.0,0.0003
787.2,0.0000
786.4,0.0003
785.6,-0.0004
784.8,0.0002
784.0,0.0004
783.2,0.0002
782.4,0.0007
781.6,-0.0003
780.8,-0.0002
780.0,0.0003
779.2,0.0011
778.4,0.0001
777.6,0.0004
776.8,0.0007
776.0,-0.0002
775.2,0.0007
774.4,-0.0003
773.6,0.0002
772.8,0.0009
772.0,0.0010
771.2,-0.0000
770.4,-0.0004
769.6,0.0001
768.8,0.0015
768.0,0.0014
767.2,0.0012
766.4,0.0010
765.6,0.0002
764.8,0.0007
764.0,0.0008
763.2,0.0014
762.4,0.0011
761.6,0.0018
760.8,0.0015
760.0,0.0020
759.2,0.0019
758.4,0.0022
757.6,0.0009
756.8,0.0017
756.0,0.0009
755.2,0.0012
754.4,0.0021
753.6,0.0014
752.8,0.0022
752.0,0.0018
751.2,0.0018
750.4,0.0022
749.6,0.0017
748.8,0.0019
748.0,0.0009
747.2,0.0025
746.4,0.0019
745.6,0.0025
744.8,0.0022
744.0,0.0020
743.2,0.0024
742.4,0.0025
741.6,0.0024
740.8,0.0020
740.0,0.0016
739.2,0.0014
738.4,0.0020
737.6,0.0020
736.8,0.0018
736.0,0.0023
735.2,0.0022
734.4,0.0026
733.6,0.0017
732.8,0.0015
732.0,0.0020
731.2,0.0025
730.4,0.0021
729.6,0.0025
728.8,0.0023
728.0,0.0029
727.2,0.0022
726.4,0.0017
725.6,0.0017
724.8,0.0018
724.0,0.0019
723.2,0.0020
722.4,0.0023
721.6,0.0024
720.8,0.0022
720.0,0.0019
719.2,0.0021
718.4,0.0024
717.6,0.0023
716.8,0.0028
716.0,0.0034
715.2,0.0030
714.4,0.0027
713.6,0.0028
712.8,0.0033
712.0,0.0035
711.2,0.0038
710.4,0.0039
709.6,0.0040
708.8,0.0033
708.0,0.0043
707.2,0.0039
706.4,0.0041
705.6,0.0040
704.8,0.0043
704.0,0.0041
703.2,0.0041
702.4,0.0042
701.6,0.0050
700.8,0.0045
700.0,0.0045
699.2,0.0040
698.4,0.0045
697.6,0.0050
696.8,0.0053
696.0,0.0049
695.2,0.0045
694.4,0.0044
693.6,0.0047
692.8,0.0049
692.0,0.0053
691.2,0.0051
690.4,0.0056
689.6,0.0050
688.8,0.0056
688.0,0.0047
687.2,0.0055
686.4,0.0062
685.6,0.0057
684.8,0.0061
684.0,0.0058
683.2,0.0061
682.4,0.0061
681.6,0.0061
680.8,0.0062
680.0,0.0062
679.2,0.0062
678.4,0.0067
677.6,0.0065
676.8,0.0065
676.0,0.0072
675.2,0.0069
674.4,0.0074
673.6,0.0070
672.8,0.0076
672.0,0.0072
671.2,0.0079
670.4,0.0079
669.6,0.0077
668.8,0.0085
668.0,0.0081
667.2,0.0087
666.4,0.0078
665.6,0.0088
664.8,0.0080
664.0,0.0089
663.2,0.0087
662.4,0.0078
661.6,0.0082
660.8,0.0076
660.0,0.0083
659.2,0.0085
658.4,0.0081
657.6,0.0081
656.8,0.0080
656.0,0.0073
655.2,0.0073
654.4,0.0076
653.6,0.0075
652.8,0.0070
652.0,0.0070
651.2,0.0075
650.4,0.0078
649.6,0.0066
648.8,0.0067
648.0,0.0072
647.2,0.0068
646.4,0.0067
645.6,0.0065
644.8,0.0068
644.0,0.0063
643.2,0.0064
642.4,0.0067
641.6,0.0065
640.8,0.0066
640.0,0.0060
639.2,0.0061
638.4,0.0062
637.6,0.0058
636.8,0.0063
636.0,0.0056
635.2,0.0063
634.4,0.0059
633.6,0.0061
632.8,0.0063
632.0,0.0060
631.2,0.0059
630.4,0.0057
629.6,0.0060
628.8,0.0060
628.0,0.0059
627.2,0.0060
626.4,0.0060
625.6,0.0054
624.8,0.0060
624.0,0.0058
623.2,0.0056
622.4,0.0057
621.6,0.0059
620.8,0.0059
620.0,0.0059
619.2,0.0056
618.4,0.0050
617.6,0.0055
616.8,0.0051
616.0,0.0052
615.2,0.0051
614.4,0.0051
613.6,0.0046
612.8,0.0045
612.0,0.0051
611.2,0.0042
610.4,0.0042
609.6,0.0041
608.8,0.0043
608.0,0.0041
607.2,0.0037
606.4,0.0037
605.6,0.0035
604.8,0.0033
604.0,0.0032
603.2,0.0029
602.4,0.0030
601.6,0.0029
600.8,0.0027
600.0,0.0023
599.2,0.0023
598.4,0.0020
597.6,0.0018
596.8,0.0015
596.0,0.0012
595.2,0.0013
594.4,0.0008
593.6,0.0005
592.8,0.0004
592.0,0.0010
591.2,0.0002
590.4,0.0002
589.6,0.0000
588.8,-0.0001
588.0,-0.0002
587.2,-0.0008
586.4,-0.0011
585.6,-0.0012
584.8,-0.0009
584.0,-0.0014
583.2,-0.0019
582.4,-0.0021
581.6,-0.0021
580.8,-0.0019
580.0,-0.0026

File: Sample338.Sample.csv
Created as New Dataset,
nm,A
800.0,0.0002
799.2,-0.0004
798.4,0.0008
797.6,-0.0002
796.8,-0.0002
796.0,0.0007
795.2,-0.0000
794.4,-0.0001
793.6,0.0013
792.8,-0.0000
792.0,0.0002
791.2,-0.0005
790.4,0.0005
789.6,-0.0004
788.8,0.0000
788.0,-0.0001
787.2,0.0003
786.4,-0.0002
785.6,-0.0004
784.8,0.0008
784.0,0.0003
783.2,0.0004
782.4,0.0007
781.6,-0.0004
780.8,0.0006
780.0,0.0011
779.2,0.0007
778.4,0.0008
777.6,0.0007
776.8,0.0002
776.0,0.0003
775.2,0.0011
774.4,0.0002
773.6,0.0003
772.8,0.0010
772.0,0.0007
771.2,0.0004
770.4,0.0003
769.6,0.0004
768.8,0.0013
768.0,0.0012
767.2,0.0009
766.4,0.0015
765.6,0.0003
764.8,0.0008
764.0,0.0009
763.2,0.0013
762.4,0.0016
761.6,0.0011
760.8,0.0018
760.0,0.0012
759.2,0.0016
758.4,0.0008
757.6,0.0005
756.8,0.0012
756.0,0.0009
755.2,0.0015
754.4,0.0015
753.6,0.0013
752.8,0.0016
752.0,0.0018
751.2,0.0008
750.4,0.0013
749.6,0.0015
748.8,0.0016
748.0,0.0010
747.2,0.0010
746.4,0.0009
745.6,0.0017
744.8,0.0016
744.0,0.0016
743.2,0.0018
742.4,0.0015
741.6,0.0015
740.8,0.0019
740.0,0.0017
739.2,0.0010
738.4,0.0016
737.6,0.0018
736.8,0.0024
736.0,0.0018
735.2,0.0020
734.4,0.0022
733.6,0.0016
732.8,0.0017
732.0,0.0014
731.2,0.0017
730.4,0.0026
729.6,0.0024
728.8,0.0017
728.0,0.0020
727.2,0.0023
726.4,0.0020
725.6,0.0017
724.8,0.0019
724.0,0.0018
723.2,0.0024
722.4,0.0024
721.6,0.0023
720.8,0.0023
720.0,0.0021
719.2,0.0022
718.4,0.0029
717.6,0.0025
716.8,0.0025
716.0,0.0023
715.2,0.0017
714.4,0.0023
713.6,0.0025
712.8,0.0022
712.0,0.0026
711.2,0.0031
710.4,0.0028
709.6,0.0033
708.8,0.0029
708.0,0.0025
707.2,0.0028
706.4,0.0018
705.6,0.0026
704.8,0.0036
704.0,0.0030
703.2,0.0033
702.4,0.0034
701.6,0.0030
700.8,0.0029
700.0,0.0029
699.2,0.0028
698.4,0.0034
697.6,0.0032
696.8,0.0038
696.0,0.0037
695.2,0.0033
694.4,0.0033
693.6,0.0035
692.8,0.0035
692.0,0.0037
691.2,0.0040
690.4,0.0037
689.6,0.0035
688.8,0.0041
688.0,0.0036
687.2,0.0037
686.4,0.0042
685.6,0.0038
684.8,0.0041
684.0,0.0039
683.2,0.0046
682.4,0.0042
681.6,0.0043
680.8,0.0040
680.0,0.0043
679.2,0.0044
678.4,0.0047
677.6,0.0047
676.8,0.0046
676.0,0.0051
675.2,0.0048
674.4,0.0050
673.6,0.0049
672.8,0.0053
672.0,0.0050
671.2,0.0049
670.4,0.0050
669.6,0.0052
668.8,0.0053
668.0,0.0054
667.2,0.0057
666.4,0.0053
665.6,0.0054
664.8,0.0049
664.0,0.0053
663.2,0.0050
662.4,0.0050
661.6,0.0053
660.8,0.0049
660.0,0.0051
659.2,0.0052
658.4,0.0052
657.6,0.0050
656.8,0.0053
656.0,0.0050
655.2,0.0042
654.4,0.0047
653.6,0.0044
652.8,0.0042
652.0,0.0046
651.2,0.0048
650.4,0.0051
649.6,0.0043
648.8,0.0042
648.0,0.0046
647.2,0.0042
646.4,0.0045
645.6,0.0040
644.8,0.0047
644.0,0.0041
643.2,0.0038
642.4,0.0048
641.6,0.0037
640.8,0.0045
640.0,0.0042
639.2,0.0038
638.4,0.0044
637.6,0.0037
636.8,0.0045
636.0,0.0040
635.2,0.0040
634.4,0.0043
633.6,0.0039
632.8,0.0043
632.0,0.0040
631.2,0.0040
630.4,0.0042
629.6,0.0038
628.8,0.0042
628.0,0.0045
627.2,0.0044
626.4,0.0043
625.6,0.0041
624.8,0.0041
624.0,0.0039
623.2,0.0040
622.4,0.0040
621.6,0.0038
620.8,0.0043
620.0,0.0042
619.2,0.0042
618.4,0.0039
617.6,0.0043
616.8,0.0039
616.0,0.0035
615.2,0.0039
614.4,0.0040
613.6,0.0036
612.8,0.0037
612.0,0.0037
611.2,0.0035
610.4,0.0035
609.6,0.0030
608.8,0.0032
608.0,0.0036
607.2,0.0031
606.4,0.0027
605.6,0.0028
604.8,0.0029
604.0,0.0028
603.2,0.0028
602.4,0.0028
601.6,0.0024
600.8,0.0026
600.0,0.0022
599.2,0.0024
598.4,0.0021
597.6,0.0022
596.8,0.0014
596.0,0.0014
595.2,0.0018
594.4,0.0014
593.6,0.0010
592.8,0.0012
592.0,0.0012
591.2,0.0007
590.4,0.0007
589.6,0.0008
588.8,0.0005
588.0,0.0004
587.2,0.0002
586.4,0.0006
585.6,-0.0001
584.8,-0.0000
584.0,-0.0002
583.2,-0.0004
582.4,-0.0006
581.6,-0.0007
580.8,-0.0006
580.0,-0.0011