Folder: Rawdata_Ru_MoS2/Figure1/UV-vis (part 3)

File: Sample345.Sample.csv
Created as New Dataset,
nm,A
800.0,-0.0133
799.2,-0.0142
798.4,-0.0136
797.6,-0.0153
796.8,-0.0149
796.0,-0.0141
795.2,-0.0153
794.4,-0.0161
793.6,-0.0154
792.8,-0.0166
792.0,-0.0171
791.2,-0.0176
790.4,-0.0186
789.6,-0.0191
788.8,-0.0195
788.0,-0.0191
787.2,-0.0191
786.4,-0.0199
785.6,-0.0203
784.8,-0.0203
784.0,-0.0202
783.2,-0.0199
782.4,-0.0196
781.6,-0.0204
780.8,-0.0203
780.0,-0.0196
779.2,-0.0193
778.4,-0.0203
777.6,-0.0191
776.8,-0.0199
776.0,-0.0201
775.2,-0.0200
774.4,-0.0202
773.6,-0.0193
772.8,-0.0199
772.0,-0.0196
771.2,-0.0198
770.4,-0.0200
769.6,-0.0191
768.8,-0.0176
768.0,-0.0166
767.2,-0.0161
766.4,-0.0151
765.6,-0.0146
764.8,-0.0130
764.0,-0.0129
763.2,-0.0118
762.4,-0.0111
761.6,-0.0115
760.8,-0.0116
760.0,-0.0120
759.2,-0.0126
758.4,-0.0142
757.6,-0.0159
756.8,-0.0173
756.0,-0.0187
755.2,-0.0203
754.4,-0.0223
753.6,-0.0226
752.8,-0.0241
752.0,-0.0252
751.2,-0.0259
750.4,-0.0266
749.6,-0.0269
748.8,-0.0274
748.0,-0.0276
747.2,-0.0271
746.4,-0.0274
745.6,-0.0267
744.8,-0.0270
744.0,-0.0276
743.2,-0.0268
742.4,-0.0278
741.6,-0.0276
740.8,-0.0279
740.0,-0.0278
739.2,-0.0274
738.4,-0.0264
737.6,-0.0253
736.8,-0.0245
736.0,-0.0234
735.2,-0.0221
734.4,-0.0204
733.6,-0.0192
732.8,-0.0184
732.0,-0.0174
731.2,-0.0168
730.4,-0.0171
729.6,-0.0174
728.8,-0.0182
728.0,-0.0188
727.2,-0.0201
726.4,-0.0210
725.6,-0.0224
724.8,-0.0229
724.0,-0.0240
723.2,-0.0244
722.4,-0.0246
721.6,-0.0248
720.8,-0.0251
720.0,-0.0251
719.2,-0.0259
718.4,-0.0255
717.6,-0.0251
716.8,-0.0246
716.0,-0.0231
715.2,-0.0226
714.4,-0.0211
713.6,-0.0204
712.8,-0.0197
712.0,-0.0191
711.2,-0.0196
710.4,-0.0209
709.6,-0.0216
708.8,-0.0232
708.0,-0.0238
707.2,-0.0249
706.4,-0.0258
705.6,-0.0257
704.8,-0.0264
704.0,-0.0276
703.2,-0.0278
702.4,-0.0274
701.6,-0.0263
700.8,-0.0269
700.0,-0.0247
699.2,-0.0241
698.4,-0.0220
697.6,-0.0208
696.8,-0.0191
696.0,-0.0190
695.2,-0.0185
694.4,-0.0183
693.6,-0.0186
692.8,-0.0186
692.0,-0.0191
691.2,-0.0199
690.4,-0.0203
689.6,-0.0221
688.8,-0.0214
688.0,-0.0235
687.2,-0.0237
686.4,-0.0237
685.6,-0.0251
684.8,-0.0249
684.0,-0.0255
683.2,-0.0253
682.4,-0.0247
681.6,-0.0251
680.8,-0.0260
680.0,-0.0261
679.2,-0.0266
678.4,-0.0260
677.6,-0.0266
676.8,-0.0267
676.0,-0.0267
675.2,-0.0270
674.4,-0.0269
673.6,-0.0263
672.8,-0.0265
672.0,-0.0270
671.2,-0.0261
670.4,-0.0263
669.6,-0.0263
668.8,-0.0258
668.0,-0.0255
667.2,-0.0251
666.4,-0.0249
665.6,-0.0248
664.8,-0.0250
664.0,-0.0247
663.2,-0.0246
662.4,-0.0248
661.6,-0.0244
660.8,-0.0248
660.0,-0.0241
659.2,-0.0241
658.4,-0.0244
657.6,-0.0246
656.8,-0.0245
656.0,-0.0240
655.2,-0.0247
654.4,-0.0246
653.6,-0.0249
652.8,-0.0254
652.0,-0.0253
651.2,-0.0253
650.4,-0.0252
649.6,-0.0258
648.8,-0.0261
648.0,-0.0262
647.2,-0.0268
646.4,-0.0267
645.6,-0.0275
644.8,-0.0274
644.0,-0.0275
643.2,-0.0283
642.4,-0.0283
641.6,-0.0292
640.8,-0.0285
640.0,-0.0293
639.2,-0.0301
638.4,-0.0297
637.6,-0.0309
636.8,-0.0306
636.0,-0.0317
635.2,-0.0314
634.4,-0.0326
633.6,-0.0323
632.8,-0.0325
632.0,-0.0335
631.2,-0.0338
630.4,-0.0341
629.6,-0.0342
628.8,-0.0345
628.0,-0.0350
627.2,-0.0351
626.4,-0.0357
625.6,-0.0362
624.8,-0.0362
624.0,-0.0368
623.2,-0.0371
622.4,-0.0370
621.6,-0.0379
620.8,-0.0373
620.0,-0.0380
619.2,-0.0383
618.4,-0.0389
617.6,-0.0387
616.8,-0.0390
616.0,-0.0397
615.2,-0.0395
614.4,-0.0396
613.6,-0.0399
612.8,-0.0403
612.0,-0.0404
611.2,-0.0408
610.4,-0.0408
609.6,-0.0410
608.8,-0.0406
608.0,-0.0406
607.2,-0.0412
606.4,-0.0408
605.6,-0.0409
604.8,-0.0407
604.0,-0.0407
603.2,-0.0407
602.4,-0.0406
601.6,-0.0405
600.8,-0.0406
600.0,-0.0407
599.2,-0.0403
598.4,-0.0403
597.6,-0.0405
596.8,-0.0409
596.0,-0.0403
595.2,-0.0405
594.4,-0.0406
593.6,-0.0411
592.8,-0.0410
592.0,-0.0403
591.2,-0.0410
590.4,-0.0409
589.6,-0.0407
588.8,-0.0414
588.0,-0.0412
587.2,-0.0414
586.4,-0.0417
585.6,-0.0420
584.8,-0.0421
584.0,-0.0427
583.2,-0.0425
582.4,-0.0430
581.6,-0.0433
580.8,-0.0430
580.0,-0.0434

File: Sample346.Sample.csv
Created as New Dataset,
nm,A
800.0,0.0070
799.2,0.0073
798.4,0.0075
797.6,0.0065
796.8,0.0070
796.0,0.0072
795.2,0.0072
794.4,0.0069
793.6,0.0065
792.8,0.0076
792.0,0.0072
791.2,0.0069
790.4,0.0073
789.6,0.0072
788.8,0.0066
788.0,0.0065
787.2,0.0068
786.4,0.0073
785.6,0.0067
784.8,0.0077
784.0,0.0077
783.2,0.0067
782.4,0.0079
781.6,0.0070
780.8,0.0063
780.0,0.0073
779.2,0.0077
778.4,0.0070
777.6,0.0075
776.8,0.0075
776.0,0.0075
775.2,0.0072
774.4,0.0074
773.6,0.0072
772.8,0.0074
772.0,0.0078
771.2,0.0071
770.4,0.0064
769.6,0.0067
768.8,0.0077
768.0,0.0076
767.2,0.0077
766.4,0.0078
765.6,0.0077
764.8,0.0079
764.0,0.0072
763.2,0.0077
762.4,0.0076
761.6,0.0077
760.8,0.0072
760.0,0.0080
759.2,0.0080
758.4,0.0078
757.6,0.0079
756.8,0.0076
756.0,0.0074
755.2,0.0083
754.4,0.0079
753.6,0.0081
752.8,0.0089
752.0,0.0074
751.2,0.0078
750.4,0.0088
749.6,0.0086
748.8,0.0077
748.0,0.0074
747.2,0.0079
746.4,0.0079
745.6,0.0084
744.8,0.0078
744.0,0.0084
743.2,0.0085
742.4,0.0084
741.6,0.0086
740.8,0.0085
740.0,0.0078
739.2,0.0087
738.4,0.0086
737.6,0.0087
736.8,0.0092
736.0,0.0085
735.2,0.0089
734.4,0.0087
733.6,0.0083
732.8,0.0083
732.0,0.0085
731.2,0.0094
730.4,0.0095
729.6,0.0087
728.8,0.0090
728.0,0.0095
727.2,0.0087
726.4,0.0094
725.6,0.0093
724.8,0.0085
724.0,0.0083
723.2,0.0090
722.4,0.0088
721.6,0.0095
720.8,0.0096
720.0,0.0094
719.2,0.0085
718.4,0.0095
717.6,0.0089
716.8,0.0093
716.0,0.0090
715.2,0.0093
714.4,0.0090
713.6,0.0091
712.8,0.0098
712.0,0.0100
711.2,0.0099
710.4,0.0099
709.6,0.0098
708.8,0.0095
708.0,0.0102
707.2,0.0096
706.4,0.0099
705.6,0.0106
704.8,0.0108
704.0,0.0101
703.2,0.0104
702.4,0.0108
701.6,0.0111
700.8,0.0101
700.0,0.0106
699.2,0.0103
698.4,0.0106
697.6,0.0107
696.8,0.0115
696.0,0.0112
695.2,0.0112
694.4,0.0110
693.6,0.0110
692.8,0.0113
692.0,0.0119
691.2,0.0113
690.4,0.0117
689.6,0.0116
688.8,0.0118
688.0,0.0113
687.2,0.0119
686.4,0.0124
685.6,0.0120
684.8,0.0122
684.0,0.0121
683.2,0.0125
682.4,0.0129
681.6,0.0134
680.8,0.0129
680.0,0.0124
679.2,0.0130
678.4,0.0134
677.6,0.0135
676.8,0.0137
676.0,0.0140
675.2,0.0140
674.4,0.0144
673.6,0.0139
672.8,0.0142
672.0,0.0144
671.2,0.0149
670.4,0.0144
669.6,0.0143
668.8,0.0152
668.0,0.0151
667.2,0.0154
666.4,0.0147
665.6,0.0153
664.8,0.0147
664.0,0.0151
663.2,0.0145
662.4,0.0143
661.6,0.0147
660.8,0.0137
660.0,0.0146
659.2,0.0148
658.4,0.0143
657.6,0.0141
656.8,0.0141
656.0,0.0137
655.2,0.0137
654.4,0.0140
653.6,0.0131
652.8,0.0137
652.0,0.0134
651.2,0.0135
650.4,0.0135
649.6,0.0136
648.8,0.0131
648.0,0.0135
647.2,0.0132
646.4,0.0135
645.6,0.0130
644.8,0.0136
644.0,0.0134
643.2,0.0131
642.4,0.0137
641.6,0.0135
640.8,0.0141
640.0,0.0137
639.2,0.0133
638.4,0.0140
637.6,0.0134
636.8,0.0144
636.0,0.0137
635.2,0.0141
634.4,0.0139
633.6,0.0142
632.8,0.0145
632.0,0.0142
631.2,0.0142
630.4,0.0143
629.6,0.0146
628.8,0.0146
628.0,0.0151
627.2,0.0152
626.4,0.0149
625.6,0.0148
624.8,0.0153
624.0,0.0151
623.2,0.0152
622.4,0.0151
621.6,0.0151
620.8,0.0158
620.0,0.0154
619.2,0.0155
618.4,0.0155
617.6,0.0156
616.8,0.0153
616.0,0.0153
615.2,0.0150
614.4,0.0154
613.6,0.0150
612.8,0.0150
612.0,0.0151
611.2,0.0145
610.4,0.0144
609.6,0.0148
608.8,0.0147
608.0,0.0149
607.2,0.0139
606.4,0.0142
605.6,0.0140
604.8,0.0139
604.0,0.0137
603.2,0.0134
602.4,0.0136
601.6,0.0133
600.8,0.0131
600.0,0.0130
599.2,0.0129
598.4,0.0129
597.6,0.0127
596.8,0.0121
596.0,0.0124
595.2,0.0123
594.4,0.0123
593.6,0.0118
592.8,0.0120
592.0,0.0119
591.2,0.0117
590.4,0.0115
589.6,0.0116
588.8,0.0113
588.0,0.0114
587.2,0.0112
586.4,0.0114
585.6,0.0110
584.8,0.0112
584.0,0.0107
583.2,0.0107
582.4,0.0105
581.6,0.0105
580.8,0.0107
580.0,0.0103

File: Sample347.Sample.csv
Created as New Dataset,
nm,A
800.0,0.0067
799.2,0.0067
798.4,0.0074
797.6,0.0064
796.8,0.0062
796.0,0.0078
795.2,0.0072
794.4,0.0070
793.6,0.0073
792.8,0.0083
792.0,0.0072
791.2,0.0078
790.4,0.0068
789.6,0.0061
788.8,0.0062
788.0,0.0071
787.2,0.0071
786.4,0.0079
785.6,0.0066
784.8,0.0071
784.0,0.0083
783.2,0.0081
782.4,0.0073
781.6,0.0065
780.8,0.0071
780.0,0.0067
779.2,0.0075
778.4,0.0076
777.6,0.0081
776.8,0.0079
776.0,0.0075
775.2,0.0081
774.4,0.0069
773.6,0.0074
772.8,0.0072
772.0,0.0081
771.2,0.0073
770.4,0.0069
769.6,0.0070
768.8,0.0082
768.0,0.0075
767.2,0.0076
766.4,0.0078
765.6,0.0071
764.8,0.0080
764.0,0.0076
763.2,0.0086
762.4,0.0084
761.6,0.0080
760.8,0.0083
760.0,0.0078
759.2,0.0079
758.4,0.0085
757.6,0.0080
756.8,0.0081
756.0,0.0082
755.2,0.0082
754.4,0.0079
753.6,0.0085
752.8,0.0085
752.0,0.0074
751.2,0.0083
750.4,0.0083
749.6,0.0085
748.8,0.0080
748.0,0.0080
747.2,0.0084
746.4,0.0080
745.6,0.0086
744.8,0.0077
744.0,0.0082
743.2,0.0090
742.4,0.0078
741.6,0.0086
740.8,0.0085
740.0,0.0086
739.2,0.0081
738.4,0.0081
737.6,0.0082
736.8,0.0089
736.0,0.0086
735.2,0.0087
734.4,0.0096
733.6,0.0090
732.8,0.0090
732.0,0.0090
731.2,0.0091
730.4,0.0102
729.6,0.0097
728.8,0.0088
728.0,0.0090
727.2,0.0096
726.4,0.0092
725.6,0.0088
724.8,0.0087
724.0,0.0084
723.2,0.0093
722.4,0.0094
721.6,0.0094
720.8,0.0094
720.0,0.0092
719.2,0.0093
718.4,0.0100
717.6,0.0092
716.8,0.0101
716.0,0.0089
715.2,0.0094
714.4,0.0093
713.6,0.0094
712.8,0.0095
712.0,0.0103
711.2,0.0103
710.4,0.0103
709.6,0.0109
708.8,0.0100
708.0,0.0105
707.2,0.0104
706.4,0.0100
705.6,0.0107
704.8,0.0111
704.0,0.0108
703.2,0.0102
702.4,0.0106
701.6,0.0112
700.8,0.0106
700.0,0.0109
699.2,0.0103
698.4,0.0108
697.6,0.0106
696.8,0.0119
696.0,0.0116
695.2,0.0111
694.4,0.0111
693.6,0.0111
692.8,0.0112
692.0,0.0115
691.2,0.0115
690.4,0.0122
689.6,0.0117
688.8,0.0122
688.0,0.0114
687.2,0.0124
686.4,0.0129
685.6,0.0123
684.8,0.0124
684.0,0.0128
683.2,0.0131
682.4,0.0127
681.6,0.0132
680.8,0.0127
680.0,0.0137
679.2,0.0131
678.4,0.0136
677.6,0.0136
676.8,0.0135
676.0,0.0141
675.2,0.0139
674.4,0.0140
673.6,0.0145
672.8,0.0148
672.0,0.0146
671.2,0.0148
670.4,0.0147
669.6,0.0142
668.8,0.0153
668.0,0.0148
667.2,0.0151
666.4,0.0151
665.6,0.0151
664.8,0.0147
664.0,0.0149
663.2,0.0151
662.4,0.0146
661.6,0.0148
660.8,0.0143
660.0,0.0150
659.2,0.0147
658.4,0.0144
657.6,0.0141
656.8,0.0140
656.0,0.0143
655.2,0.0143
654.4,0.0141
653.6,0.0136
652.8,0.0131
652.0,0.0135
651.2,0.0140
650.4,0.0140
649.6,0.0132
648.8,0.0132
648.0,0.0137
647.2,0.0137
646.4,0.0140
645.6,0.0134
644.8,0.0141
644.0,0.0138
643.2,0.0135
642.4,0.0139
641.6,0.0140
640.8,0.0139
640.0,0.0139
639.2,0.0135
638.4,0.0141
637.6,0.0138
636.8,0.0145
636.0,0.0140
635.2,0.0145
634.4,0.0142
633.6,0.0143
632.8,0.0143
632.0,0.0142
631.2,0.0146
630.4,0.0147
629.6,0.0145
628.8,0.0148
628.0,0.0151
627.2,0.0158
626.4,0.0155
625.6,0.0150
624.8,0.0152
624.0,0.0154
623.2,0.0153
622.4,0.0154
621.6,0.0154
620.8,0.0158
620.0,0.0158
619.2,0.0157
618.4,0.0153
617.6,0.0159
616.8,0.0153
616.0,0.0153
615.2,0.0153
614.4,0.0157
613.6,0.0153
612.8,0.0151
612.0,0.0150
611.2,0.0150
610.4,0.0147
609.6,0.0148
608.8,0.0149
608.0,0.0151
607.2,0.0141
606.4,0.0142
605.6,0.0142
604.8,0.0140
604.0,0.0137
603.2,0.0136
602.4,0.0136
601.6,0.0137
600.8,0.0131
600.0,0.0132
599.2,0.0134
598.4,0.0132
597.6,0.0128
596.8,0.0124
596.0,0.0122
595.2,0.0125
594.4,0.0126
593.6,0.0121
592.8,0.0124
592.0,0.0122
591.2,0.0122
590.4,0.0119
589.6,0.0118
588.8,0.0119
588.0,0.0118
587.2,0.0116
586.4,0.0117
585.6,0.0113
584.8,0.0116
584.0,0.0109
583.2,0.0110
582.4,0.0107
581.6,0.0106
580.8,0.0109
580.0,0.0110

File: Sample348.Sample.csv
Created as New Dataset,
nm,A
800.0,0.0083
799.2,0.0080
798.4,0.0078
797.6,0.0067
796.8,0.0070
796.0,0.0077
795.2,0.0078
794.4,0.0072
793.6,0.0075
792.8,0.0073
792.0,0.0073
791.2,0.0080
790.4,0.0070
789.6,0.0070
788.8,0.0072
788.0,0.0072
787.2,0.0080
786.4,0.0069
785.6,0.0074
784.8,0.0081
784.0,0.0069
783.2,0.0087
782.4,0.0076
781.6,0.0071
780.8,0.0078
780.0,0.0082
779.2,0.0077
778.4,0.0073
777.6,0.0082
776.8,0.0077
776.0,0.0069
775.2,0.0070
774.4,0.0072
773.6,0.0073
772.8,0.0085
772.0,0.0077
771.2,0.0074
770.4,0.0069
769.6,0.0071
768.8,0.0082
768.0,0.0080
767.2,0.0080
766.4,0.0084
765.6,0.0079
764.8,0.0076
764.0,0.0076
763.2,0.0082
762.4,0.0091
761.6,0.0083
760.8,0.0077
760.0,0.0090
759.2,0.0085
758.4,0.0081
757.6,0.0084
756.8,0.0093
756.0,0.0080
755.2,0.0084
754.4,0.0087
753.6,0.0087
752.8,0.0086
752.0,0.0080
751.2,0.0077
750.4,0.0092
749.6,0.0086
748.8,0.0083
748.0,0.0082
747.2,0.0084
746.4,0.0080
745.6,0.0093
744.8,0.0087
744.0,0.0089
743.2,0.0091
742.4,0.0089
741.6,0.0086
740.8,0.0090
740.0,0.0090
739.2,0.0083
738.4,0.0083
737.6,0.0090
736.8,0.0091
736.0,0.0090
735.2,0.0094
734.4,0.0092
733.6,0.0090
732.8,0.0084
732.0,0.0090
731.2,0.0094
730.4,0.0100
729.6,0.0100
728.8,0.0097
728.0,0.0091
727.2,0.0094
726.4,0.0091
725.6,0.0093
724.8,0.0096
724.0,0.0092
723.2,0.0097
722.4,0.0099
721.6,0.0092
720.8,0.0096
720.0,0.0095
719.2,0.0099
718.4,0.0105
717.6,0.0098
716.8,0.0099
716.0,0.0098
715.2,0.0099
714.4,0.0102
713.6,0.0104
712.8,0.0096
712.0,0.0105
711.2,0.0104
710.4,0.0103
709.6,0.0109
708.8,0.0095
708.0,0.0106
707.2,0.0104
706.4,0.0106
705.6,0.0107
704.8,0.0113
704.0,0.0110
703.2,0.0107
702.4,0.0111
701.6,0.0115
700.8,0.0112
700.0,0.0113
699.2,0.0110
698.4,0.0115
697.6,0.0116
696.8,0.0117
696.0,0.0119
695.2,0.0114
694.4,0.0116
693.6,0.0115
692.8,0.0123
692.0,0.0123
691.2,0.0122
690.4,0.0124
689.6,0.0120
688.8,0.0128
688.0,0.0121
687.2,0.0125
686.4,0.0132
685.6,0.0129
684.8,0.0132
684.0,0.0131
683.2,0.0137
682.4,0.0130
681.6,0.0134
680.8,0.0133
680.0,0.0135
679.2,0.0134
678.4,0.0136
677.6,0.0140
676.8,0.0142
676.0,0.0140
675.2,0.0144
674.4,0.0144
673.6,0.0143
672.8,0.0148
672.0,0.0149
671.2,0.0152
670.4,0.0148
669.6,0.0149
668.8,0.0154
668.0,0.0155
667.2,0.0158
666.4,0.0153
665.6,0.0154
664.8,0.0153
664.0,0.0152
663.2,0.0151
662.4,0.0150
661.6,0.0153
660.8,0.0146
660.0,0.0150
659.2,0.0154
658.4,0.0148
657.6,0.0145
656.8,0.0146
656.0,0.0145
655.2,0.0141
654.4,0.0145
653.6,0.0139
652.8,0.0137
652.0,0.0140
651.2,0.0143
650.4,0.0143
649.6,0.0140
648.8,0.0138
648.0,0.0140
647.2,0.0139
646.4,0.0142
645.6,0.0139
644.8,0.0142
644.0,0.0146
643.2,0.0139
642.4,0.0142
641.6,0.0143
640.8,0.0145
640.0,0.0141
639.2,0.0142
638.4,0.0145
637.6,0.0137
636.8,0.0145
636.0,0.0140
635.2,0.0148
634.4,0.0149
633.6,0.0153
632.8,0.0149
632.0,0.0150
631.2,0.0147
630.4,0.0150
629.6,0.0151
628.8,0.0153
628.0,0.0157
627.2,0.0158
626.4,0.0154
625.6,0.0151
624.8,0.0157
624.0,0.0156
623.2,0.0155
622.4,0.0157
621.6,0.0158
620.8,0.0162
620.0,0.0162
619.2,0.0160
618.4,0.0157
617.6,0.0158
616.8,0.0156
616.0,0.0159
615.2,0.0154
614.4,0.0161
613.6,0.0157
612.8,0.0155
612.0,0.0159
611.2,0.0151
610.4,0.0151
609.6,0.0151
608.8,0.0153
608.0,0.0149
607.2,0.0146
606.4,0.0148
605.6,0.0146
604.8,0.0146
604.0,0.0144
603.2,0.0140
602.4,0.0139
601.6,0.0137
600.8,0.0136
600.0,0.0138
599.2,0.0134
598.4,0.0135
597.6,0.0133
596.8,0.0128
596.0,0.0132
595.2,0.0129
594.4,0.0128
593.6,0.0122
592.8,0.0126
592.0,0.0125
591.2,0.0125
590.4,0.0122
589.6,0.0121
588.8,0.0122
588.0,0.0121
587.2,0.0118
586.4,0.0120
585.6,0.0113
584.8,0.0118
584.0,0.0114
583.2,0.0114
582.4,0.0110
581.6,0.0109
580.8,0.0111
580.0,0.0109

File: Sample349.Sample.csv
Created as New Dataset,
nm,A
800.0,0.0080
799.2,0.0078
798.4,0.0085
797.6,0.0079
796.8,0.0077
796.0,0.0088
795.2,0.0082
794.4,0.0077
793.6,0.0083
792.8,0.0076
792.0,0.0083
791.2,0.0082
790.4,0.0078
789.6,0.0076
788.8,0.0077
788.0,0.0082
787.2,0.0081
786.4,0.0081
785.6,0.0071
784.8,0.0078
784.0,0.0080
783.2,0.0078
782.4,0.0076
781.6,0.0076
780.8,0.0078
780.0,0.0085
779.2,0.0089
778.4,0.0082
777.6,0.0079
776.8,0.0082
776.0,0.0083
775.2,0.0091
774.4,0.0080
773.6,0.0076
772.8,0.0083
772.0,0.0086
771.2,0.0077
770.4,0.0076
769.6,0.0073
768.8,0.0086
768.0,0.0086
767.2,0.0084
766.4,0.0080
765.6,0.0079
764.8,0.0087
764.0,0.0084
763.2,0.0088
762.4,0.0087
761.6,0.0087
760.8,0.0086
760.0,0.0084
759.2,0.0089
758.4,0.0087
757.6,0.0080
756.8,0.0088
756.0,0.0081
755.2,0.0083
754.4,0.0094
753.6,0.0086
752.8,0.0093
752.0,0.0087
751.2,0.0092
750.4,0.0089
749.6,0.0087
748.8,0.0085
748.0,0.0080
747.2,0.0087
746.4,0.0086
745.6,0.0096
744.8,0.0085
744.0,0.0092
743.2,0.0099
742.4,0.0092
741.6,0.0094
740.8,0.0088
740.0,0.0093
739.2,0.0090
738.4,0.0094
737.6,0.0089
736.8,0.0100
736.0,0.0096
735.2,0.0098
734.4,0.0101
733.6,0.0094
732.8,0.0089
732.0,0.0099
731.2,0.0102
730.4,0.0106
729.6,0.0097
728.8,0.0102
728.0,0.0092
727.2,0.0099
726.4,0.0095
725.6,0.0101
724.8,0.0096
724.0,0.0099
723.2,0.0103
722.4,0.0101
721.6,0.0103
720.8,0.0102
720.0,0.0100
719.2,0.0101
718.4,0.0105
717.6,0.0102
716.8,0.0103
716.0,0.0104
715.2,0.0097
714.4,0.0099
713.6,0.0103
712.8,0.0104
712.0,0.0109
711.2,0.0108
710.4,0.0109
709.6,0.0108
708.8,0.0103
708.0,0.0107
707.2,0.0107
706.4,0.0107
705.6,0.0107
704.8,0.0116
704.0,0.0110
703.2,0.0110
702.4,0.0112
701.6,0.0119
700.8,0.0113
700.0,0.0114
699.2,0.0114
698.4,0.0112
697.6,0.0115
696.8,0.0122
696.0,0.0118
695.2,0.0116
694.4,0.0118
693.6,0.0121
692.8,0.0124
692.0,0.0129
691.2,0.0126
690.4,0.0127
689.6,0.0124
688.8,0.0126
688.0,0.0127
687.2,0.0128
686.4,0.0134
685.6,0.0131
684.8,0.0134
684.0,0.0137
683.2,0.0132
682.4,0.0131
681.6,0.0138
680.8,0.0133
680.0,0.0136
679.2,0.0138
678.4,0.0138
677.6,0.0144
676.8,0.0145
676.0,0.0147
675.2,0.0146
674.4,0.0148
673.6,0.0149
672.8,0.0151
672.0,0.0147
671.2,0.0158
670.4,0.0150
669.6,0.0151
668.8,0.0155
668.0,0.0157
667.2,0.0161
666.4,0.0155
665.6,0.0156
664.8,0.0154
664.0,0.0155
663.2,0.0155
662.4,0.0150
661.6,0.0157
660.8,0.0150
660.0,0.0151
659.2,0.0152
658.4,0.0156
657.6,0.0148
656.8,0.0150
656.0,0.0148
655.2,0.0150
654.4,0.0148
653.6,0.0143
652.8,0.0137
652.0,0.0142
651.2,0.0143
650.4,0.0145
649.6,0.0139
648.8,0.0138
648.0,0.0145
647.2,0.0142
646.4,0.0143
645.6,0.0142
644.8,0.0147
644.0,0.0143
643.2,0.0143
642.4,0.0143
641.6,0.0143
640.8,0.0147
640.0,0.0146
639.2,0.0146
638.4,0.0147
637.6,0.0145
636.8,0.0151
636.0,0.0146
635.2,0.0147
634.4,0.0144
633.6,0.0149
632.8,0.0153
632.0,0.0152
631.2,0.0153
630.4,0.0153
629.6,0.0153
628.8,0.0157
628.0,0.0162
627.2,0.0162
626.4,0.0158
625.6,0.0158
624.8,0.0161
624.0,0.0162
623.2,0.0162
622.4,0.0161
621.6,0.0160
620.8,0.0166
620.0,0.0165
619.2,0.0164
618.4,0.0161
617.6,0.0163
616.8,0.0162
616.0,0.0162
615.2,0.0160
614.4,0.0165
613.6,0.0161
612.8,0.0158
612.0,0.0158
611.2,0.0155
610.4,0.0148
609.6,0.0154
608.8,0.0153
608.0,0.0154
607.2,0.0148
606.4,0.0147
605.6,0.0148
604.8,0.0147
604.0,0.0144
603.2,0.0143
602.4,0.0140
601.6,0.0140
600.8,0.0139
600.0,0.0139
599.2,0.0137
598.4,0.0138
597.6,0.0134
596.8,0.0130
596.0,0.0133
595.2,0.0132
594.4,0.0131
593.6,0.0126
592.8,0.0127
592.0,0.0129
591.2,0.0124
590.4,0.0130
589.6,0.0125
588.8,0.0123
588.0,0.0124
587.2,0.0125
586.4,0.0123
585.6,0.0121
584.8,0.0122
584.0,0.0118
583.2,0.0116
582.4,0.0115
581.6,0.0114
580.8,0.0117
580.0,0.0114

File: Sample350.Sample.csv
Created as New Dataset,
nm,A
800.0,0.0081
799.2,0.0081
798.4,0.0084
797.6,0.0070
796.8,0.0083
796.0,0.0089
795.2,0.0086
794.4,0.0078
793.6,0.0086
792.8,0.0078
792.0,0.0082
791.2,0.0086
790.4,0.0075
789.6,0.0077
788.8,0.0079
788.0,0.0079
787.2,0.0085
786.4,0.0082
785.6,0.0078
784.8,0.0091
784.0,0.0089
783.2,0.0081
782.4,0.0076
781.6,0.0080
780.8,0.0078
780.0,0.0088
779.2,0.0087
778.4,0.0081
777.6,0.0084
776.8,0.0086
776.0,0.0077
775.2,0.0084
774.4,0.0083
773.6,0.0075
772.8,0.0085
772.0,0.0085
771.2,0.0081
770.4,0.0081
769.6,0.0079
768.8,0.0090
768.0,0.0087
767.2,0.0089
766.4,0.0095
765.6,0.0089
764.8,0.0085
764.0,0.0091
763.2,0.0096
762.4,0.0097
761.6,0.0094
760.8,0.0090
760.0,0.0091
759.2,0.0086
758.4,0.0094
757.6,0.0093
756.8,0.0086
756.0,0.0088
755.2,0.0093
754.4,0.0092
753.6,0.0093
752.8,0.0096
752.0,0.0089
751.2,0.0088
750.4,0.0095
749.6,0.0098
748.8,0.0092
748.0,0.0087
747.2,0.0091
746.4,0.0085
745.6,0.0096
744.8,0.0096
744.0,0.0094
743.2,0.0100
742.4,0.0097
741.6,0.0096
740.8,0.0093
740.0,0.0088
739.2,0.0095
738.4,0.0097
737.6,0.0095
736.8,0.0097
736.0,0.0099
735.2,0.0106
734.4,0.0099
733.6,0.0099
732.8,0.0094
732.0,0.0100
731.2,0.0095
730.4,0.0103
729.6,0.0104
728.8,0.0102
728.0,0.0096
727.2,0.0102
726.4,0.0098
725.6,0.0106
724.8,0.0095
724.0,0.0098
723.2,0.0107
722.4,0.0108
721.6,0.0105
720.8,0.0099
720.0,0.0103
719.2,0.0100
718.4,0.0106
717.6,0.0106
716.8,0.0110
716.0,0.0106
715.2,0.0105
714.4,0.0105
713.6,0.0107
712.8,0.0103
712.0,0.0119
711.2,0.0112
710.4,0.0110
709.6,0.0116
708.8,0.0108
708.0,0.0115
707.2,0.0110
706.4,0.0109
705.6,0.0110
704.8,0.0122
704.0,0.0117
703.2,0.0116
702.4,0.0113
701.6,0.0123
700.8,0.0116
700.0,0.0117
699.2,0.0117
698.4,0.0121
697.6,0.0121
696.8,0.0121
696.0,0.0124
695.2,0.0124
694.4,0.0123
693.6,0.0125
692.8,0.0125
692.0,0.0129
691.2,0.0131
690.4,0.0130
689.6,0.0128
688.8,0.0128
688.0,0.0127
687.2,0.0131
686.4,0.0133
685.6,0.0132
684.8,0.0137
684.0,0.0134
683.2,0.0139
682.4,0.0141
681.6,0.0138
680.8,0.0136
680.0,0.0140
679.2,0.0142
678.4,0.0145
677.6,0.0144
676.8,0.0148
676.0,0.0152
675.2,0.0154
674.4,0.0152
673.6,0.0150
672.8,0.0153
672.0,0.0156
671.2,0.0159
670.4,0.0160
669.6,0.0156
668.8,0.0161
668.0,0.0160
667.2,0.0165
666.4,0.0162
665.6,0.0161
664.8,0.0158
664.0,0.0158
663.2,0.0156
662.4,0.0158
661.6,0.0160
660.8,0.0150
660.0,0.0157
659.2,0.0159
658.4,0.0152
657.6,0.0149
656.8,0.0154
656.0,0.0148
655.2,0.0147
654.4,0.0154
653.6,0.0144
652.8,0.0144
652.0,0.0150
651.2,0.0147
650.4,0.0150
649.6,0.0144
648.8,0.0145
648.0,0.0147
647.2,0.0145
646.4,0.0145
645.6,0.0141
644.8,0.0147
644.0,0.0146
643.2,0.0145
642.4,0.0151
641.6,0.0146
640.8,0.0150
640.0,0.0150
639.2,0.0151
638.4,0.0150
637.6,0.0142
636.8,0.0155
636.0,0.0150
635.2,0.0157
634.4,0.0148
633.6,0.0157
632.8,0.0160
632.0,0.0156
631.2,0.0155
630.4,0.0157
629.6,0.0157
628.8,0.0160
628.0,0.0159
627.2,0.0166
626.4,0.0165
625.6,0.0163
624.8,0.0162
624.0,0.0164
623.2,0.0165
622.4,0.0162
621.6,0.0163
620.8,0.0172
620.0,0.0168
619.2,0.0168
618.4,0.0160
617.6,0.0170
616.8,0.0164
616.0,0.0163
615.2,0.0162
614.4,0.0166
613.6,0.0160
612.8,0.0163
612.0,0.0162
611.2,0.0161
610.4,0.0158
609.6,0.0159
608.8,0.0159
608.0,0.0159
607.2,0.0154
606.4,0.0153
605.6,0.0151
604.8,0.0156
604.0,0.0151
603.2,0.0143
602.4,0.0149
601.6,0.0143
600.8,0.0140
600.0,0.0142
599.2,0.0141
598.4,0.0142
597.6,0.0137
596.8,0.0137
596.0,0.0138
595.2,0.0138
594.4,0.0135
593.6,0.0129
592.8,0.0131
592.0,0.0135
591.2,0.0131
590.4,0.0126
589.6,0.0133
588.8,0.0129
588.0,0.0128
587.2,0.0127
586.4,0.0125
585.6,0.0123
584.8,0.0126
584.0,0.0121
583.2,0.0122
582.4,0.0120
581.6,0.0117
580.8,0.0120
580.0,0.0115